,subject,trialN,subj_idx,response,rt,task,relativeValue,totalValue,memSlideScore,memChoiceScore,Left_sum,Right_sum,absRelativeValue,accuracy,arr_L,arr_R,N_L,N_R,L-R,|L-R|
0,hwrblsy3h,1,27,1,0.691300000011921,experiment_FR,1,59,4.0,0.7,30,29,1,1,"[7, 7, 3, 7, 3, 3]","[3, 8, 2, 7, 6, 3]",2,5,-3,3
1,hwrblsy3h,2,27,1,1.01959999999404,experiment_FR,3,63,4.0,0.7,33,30,3,1,"[4, 4, 7, 2, 8, 8]","[4, 6, 6, 7, 1, 6]",4,4,0,0
2,hwrblsy3h,3,27,1,1.1725,experiment_FR,8,40,4.0,0.7,24,16,8,1,"[6, 1, 7, 6, 1, 3]","[2, 2, 1, 5, 1, 5]",4,3,1,1
3,hwrblsy3h,4,27,1,0.610799999982119,experiment_FR,9,51,4.0,0.7,30,21,9,1,"[2, 7, 1, 5, 8, 7]","[1, 4, 3, 4, 1, 8]",5,4,1,1
4,hwrblsy3h,5,27,0,1.28069999998808,experiment_FR,-4,48,4.0,0.7,22,26,4,1,"[3, 3, 3, 1, 5, 7]","[8, 3, 4, 4, 4, 3]",4,3,1,1
5,hwrblsy3h,6,27,1,1.303,experiment_FR,4,52,4.0,0.7,28,24,4,1,"[6, 3, 4, 4, 7, 4]","[4, 1, 5, 2, 6, 6]",4,5,-1,1
6,hwrblsy3h,7,27,1,0.568300000011921,experiment_FR,8,58,4.0,0.7,33,25,8,1,"[7, 8, 7, 5, 2, 4]","[3, 8, 6, 4, 1, 3]",5,5,0,0
7,hwrblsy3h,8,27,0,0.67309999999404,experiment_FR,-11,53,4.0,0.7,21,32,11,1,"[8, 3, 3, 2, 1, 4]","[5, 8, 2, 7, 6, 4]",5,6,-1,1
8,hwrblsy3h,11,27,0,0.8325,experiment_FR,-13,57,4.0,0.7,22,35,13,1,"[3, 4, 1, 4, 8, 2]","[8, 7, 5, 1, 6, 8]",5,5,0,0
9,hwrblsy3h,12,27,1,1.57929999998212,experiment_FR,8,60,4.0,0.7,34,26,8,1,"[7, 5, 5, 4, 5, 8]","[1, 6, 6, 1, 4, 8]",4,4,0,0
10,hwrblsy3h,14,27,1,1.05259999999404,experiment_FR,4,48,4.0,0.7,26,22,4,1,"[6, 6, 1, 3, 8, 2]","[3, 5, 7, 2, 1, 4]",5,6,-1,1
11,hwrblsy3h,15,27,0,1.11340000000596,experiment_FR,-3,49,4.0,0.7,23,26,3,1,"[6, 1, 5, 7, 1, 3]","[2, 7, 2, 2, 8, 5]",5,4,1,1
12,hwrblsy3h,16,27,0,1.1685,experiment_FR,1,53,4.0,0.7,27,26,1,0,"[6, 2, 5, 2, 7, 5]","[7, 7, 1, 2, 7, 2]",4,3,1,1
13,hwrblsy3h,18,27,0,0.787899999976158,experiment_FR,-12,56,4.0,0.7,22,34,12,1,"[1, 6, 1, 3, 6, 5]","[8, 7, 4, 5, 7, 3]",4,5,-1,1
14,hwrblsy3h,19,27,0,0.99609999999404,experiment_FR,-2,54,4.0,0.7,26,28,2,1,"[1, 1, 7, 5, 8, 4]","[4, 2, 3, 7, 8, 4]",5,5,0,0
15,hwrblsy3h,20,27,1,0.902800000011921,experiment_FR,11,53,4.0,0.7,32,21,11,1,"[6, 6, 6, 3, 7, 4]","[6, 1, 1, 3, 8, 2]",4,5,-1,1
16,hwrblsy3h,21,27,1,0.69890000000596,experiment_FR,-3,45,4.0,0.7,21,24,3,0,"[2, 1, 8, 2, 5, 3]","[6, 1, 5, 4, 4, 4]",5,4,1,1
17,hwrblsy3h,22,27,1,0.93840000000596,experiment_FR,1,55,4.0,0.7,28,27,1,1,"[3, 3, 4, 5, 7, 6]","[5, 4, 3, 6, 1, 8]",5,6,-1,1
18,hwrblsy3h,23,27,1,0.9815,experiment_FR,7,45,4.0,0.7,26,19,7,1,"[3, 2, 3, 6, 4, 8]","[2, 5, 6, 1, 1, 4]",5,5,0,0
19,hwrblsy3h,24,27,1,0.798699999988079,experiment_FR,-3,51,4.0,0.7,24,27,3,0,"[2, 2, 5, 7, 6, 2]","[4, 5, 6, 6, 5, 1]",4,4,0,0
20,hwrblsy3h,25,27,1,1.04409999999404,experiment_FR,4,44,4.0,0.7,24,20,4,1,"[2, 1, 7, 4, 8, 2]","[3, 1, 7, 7, 1, 1]",5,3,2,2
21,hwrblsy3h,26,27,1,1.13459999999404,experiment_FR,-6,50,4.0,0.7,22,28,6,0,"[1, 4, 6, 1, 5, 5]","[7, 6, 4, 3, 1, 7]",4,5,-1,1
22,hwrblsy3h,27,27,0,1.32319999998808,experiment_FR,-7,51,4.0,0.7,22,29,7,1,"[5, 2, 2, 3, 6, 4]","[8, 3, 5, 5, 6, 2]",5,5,0,0
23,hwrblsy3h,28,27,1,1.013,experiment_FR,0,54,4.0,0.7,27,27,0,1,"[4, 6, 4, 3, 8, 2]","[6, 3, 6, 3, 4, 5]",5,4,1,1
24,hwrblsy3h,30,27,1,0.584199999988079,experiment_FR,13,57,4.0,0.7,35,22,13,1,"[7, 7, 7, 8, 2, 4]","[1, 7, 2, 2, 2, 8]",4,4,0,0
25,hwrblsy3h,31,27,0,0.59959999999404,experiment_FR,-8,46,4.0,0.7,19,27,8,1,"[1, 3, 3, 6, 2, 4]","[6, 2, 4, 5, 8, 2]",5,5,0,0
26,hwrblsy3h,32,27,0,0.962800000011921,experiment_FR,1,51,4.0,0.7,26,25,1,0,"[2, 6, 4, 2, 6, 6]","[6, 1, 7, 2, 8, 1]",3,5,-2,2
27,hwrblsy3h,33,27,1,0.617200000017881,experiment_FR,13,57,4.0,0.7,35,22,13,1,"[6, 7, 7, 8, 3, 4]","[2, 1, 4, 6, 6, 3]",5,5,0,0
28,hwrblsy3h,34,27,1,0.77990000000596,experiment_FR,-5,31,4.0,0.7,13,18,5,0,"[1, 1, 1, 2, 2, 6]","[2, 3, 3, 3, 3, 4]",3,3,0,0
29,hwrblsy3h,36,27,1,0.487199999988079,experiment_FR,0,66,4.0,0.7,33,33,0,1,"[6, 1, 5, 8, 8, 5]","[4, 7, 3, 6, 7, 6]",4,4,0,0
30,hwrblsy3h,37,27,1,0.677699999988079,experiment_FR,17,55,4.0,0.7,36,19,17,1,"[8, 7, 8, 8, 1, 4]","[3, 6, 2, 1, 5, 2]",4,5,-1,1
31,hwrblsy3h,38,27,0,0.881800000011921,experiment_FR,-3,55,4.0,0.7,26,29,3,1,"[8, 2, 3, 3, 8, 2]","[4, 7, 8, 1, 4, 5]",3,5,-2,2
32,hwrblsy3h,39,27,0,0.862300000011921,experiment_FR,-6,56,4.0,0.7,25,31,6,1,"[5, 3, 2, 4, 4, 7]","[6, 7, 7, 4, 6, 1]",5,4,1,1
33,hwrblsy3h,40,27,0,0.563,experiment_FR,-16,50,4.0,0.7,17,33,16,1,"[5, 1, 1, 4, 5, 1]","[4, 8, 8, 8, 3, 2]",3,4,-1,1
34,hwrblsy3h,41,27,1,0.517700000017881,experiment_FR,8,48,4.0,0.7,28,20,8,1,"[3, 7, 4, 6, 6, 2]","[3, 3, 7, 2, 1, 4]",5,5,0,0
35,hwrblsy3h,42,27,1,0.821799999982119,experiment_FR,6,54,4.0,0.7,30,24,6,1,"[6, 3, 7, 3, 5, 6]","[4, 3, 6, 2, 7, 2]",4,5,-1,1
36,hwrblsy3h,43,27,1,0.405,experiment_FR,22,60,4.0,0.7,41,19,22,1,"[6, 8, 8, 7, 6, 6]","[2, 4, 5, 5, 2, 1]",3,4,-1,1
37,hwrblsy3h,44,27,0,0.54840000000596,experiment_FR,-8,50,4.0,0.7,21,29,8,1,"[3, 4, 1, 4, 3, 6]","[1, 6, 4, 3, 8, 7]",4,6,-2,2
38,hwrblsy3h,45,27,0,0.996,experiment_FR,-5,45,4.0,0.7,20,25,5,1,"[2, 3, 6, 1, 6, 2]","[2, 1, 8, 3, 4, 7]",4,6,-2,2
39,hwrblsy3h,46,27,1,0.53559999999404,experiment_FR,13,53,4.0,0.7,33,20,13,1,"[2, 7, 7, 7, 4, 6]","[7, 2, 1, 2, 3, 5]",4,5,-1,1
40,hwrblsy3h,47,27,1,0.920300000011921,experiment_FR,2,52,4.0,0.7,27,25,2,1,"[1, 4, 4, 7, 4, 7]","[3, 2, 4, 2, 6, 8]",3,5,-2,2
41,hwrblsy3h,48,27,1,0.513699999988079,experiment_FR,15,51,4.0,0.7,33,18,15,1,"[8, 6, 2, 7, 5, 5]","[3, 1, 5, 1, 1, 7]",5,4,1,1
42,hwrblsy3h,50,27,1,1.13369999998808,experiment_FR,5,45,4.0,0.7,25,20,5,1,"[3, 3, 6, 3, 2, 8]","[5, 1, 4, 7, 1, 2]",4,5,-1,1
43,hwrblsy3h,51,27,1,0.726800000011921,experiment_FR,6,40,4.0,0.7,23,17,6,1,"[4, 3, 6, 1, 8, 1]","[1, 5, 3, 2, 3, 3]",5,4,1,1
44,hwrblsy3h,52,27,1,0.658799999982119,experiment_FR,5,53,4.0,0.7,29,24,5,1,"[4, 8, 1, 2, 7, 7]","[3, 4, 5, 8, 3, 1]",5,5,0,0
45,hwrblsy3h,53,27,0,1.38360000002384,experiment_FR,3,37,4.0,0.7,20,17,3,0,"[2, 6, 3, 3, 2, 4]","[7, 2, 2, 1, 4, 1]",4,4,0,0
46,hwrblsy3h,54,27,0,0.716399999976158,experiment_FR,-8,62,4.0,0.7,27,35,8,1,"[4, 8, 2, 3, 5, 5]","[6, 7, 7, 8, 2, 5]",5,5,0,0
47,hwrblsy3h,55,27,0,0.859200000017881,experiment_FR,-2,40,4.0,0.7,19,21,2,1,"[4, 1, 2, 5, 3, 4]","[3, 1, 7, 6, 1, 3]",5,4,1,1
48,hwrblsy3h,56,27,0,0.747400000005961,experiment_FR,-5,67,4.0,0.7,31,36,5,1,"[3, 4, 6, 3, 8, 7]","[8, 5, 8, 7, 6, 2]",5,5,0,0
49,hwrblsy3h,57,27,1,1.23280000001192,experiment_FR,3,59,4.0,0.7,31,28,3,1,"[4, 5, 1, 8, 8, 5]","[5, 7, 8, 1, 1, 6]",4,5,-1,1
50,hwrblsy3h,58,27,0,1.07089999997616,experiment_FR,-9,47,4.0,0.7,19,28,9,1,"[2, 2, 1, 5, 5, 4]","[3, 3, 8, 3, 5, 6]",4,4,0,0
51,hwrblsy3h,59,27,1,0.515199999988079,experiment_FR,17,51,4.0,0.7,34,17,17,1,"[5, 2, 8, 4, 7, 8]","[4, 1, 1, 4, 1, 6]",5,3,2,2
52,hwrblsy3h,60,27,0,0.595699999988079,experiment_FR,-9,65,4.0,0.7,28,37,9,1,"[8, 5, 3, 3, 6, 3]","[8, 7, 8, 2, 7, 5]",4,4,0,0
53,hwrblsy3h,61,27,0,0.97809999999404,experiment_FR,-6,34,4.0,0.7,14,20,6,1,"[4, 1, 3, 3, 2, 1]","[1, 2, 8, 2, 3, 4]",4,5,-1,1
54,hwrblsy3h,62,27,0,0.61409999999404,experiment_FR,0,50,4.0,0.7,25,25,0,1,"[7, 4, 1, 5, 6, 2]","[7, 3, 3, 6, 5, 1]",6,5,1,1
55,hwrblsy3h,63,27,0,1.54420000001788,experiment_FR,0,52,4.0,0.7,26,26,0,1,"[5, 7, 4, 7, 2, 1]","[1, 6, 4, 5, 3, 7]",5,6,-1,1
56,hwrblsy3h,64,27,0,0.593699999988079,experiment_FR,-13,45,4.0,0.7,16,29,13,1,"[4, 1, 3, 1, 6, 1]","[3, 7, 6, 6, 2, 5]",4,5,-1,1
57,hwrblsy3h,65,27,1,0.611200000017881,experiment_FR,6,64,4.0,0.7,35,29,6,1,"[4, 4, 6, 8, 7, 6]","[3, 8, 6, 4, 4, 4]",4,4,0,0
58,hwrblsy3h,66,27,1,0.821699999988079,experiment_FR,3,65,4.0,0.7,34,31,3,1,"[8, 8, 2, 5, 7, 4]","[3, 7, 4, 4, 5, 8]",5,5,0,0
59,hwrblsy3h,67,27,1,0.792,experiment_FR,3,49,4.0,0.7,26,23,3,1,"[3, 5, 3, 5, 3, 7]","[4, 4, 6, 3, 5, 1]",3,5,-2,2
60,hwrblsy3h,68,27,1,0.96290000000596,experiment_FR,-1,39,4.0,0.7,19,20,1,0,"[2, 1, 3, 2, 6, 5]","[2, 4, 1, 4, 4, 5]",5,4,1,1
61,hwrblsy3h,69,27,0,0.88209999999404,experiment_FR,-6,52,4.0,0.7,23,29,6,1,"[4, 1, 8, 3, 6, 1]","[1, 7, 8, 4, 2, 7]",5,5,0,0
62,hwrblsy3h,70,27,1,0.922200000017881,experiment_FR,8,58,4.0,0.7,33,25,8,1,"[4, 7, 1, 8, 5, 8]","[3, 6, 2, 1, 7, 6]",5,5,0,0
63,hwrblsy3h,71,27,0,0.598399999976158,experiment_FR,-2,54,4.0,0.7,26,28,2,1,"[8, 5, 5, 3, 2, 3]","[5, 2, 3, 8, 7, 3]",4,5,-1,1
64,hwrblsy3h,72,27,1,0.8405,experiment_FR,9,49,4.0,0.7,29,20,9,1,"[7, 7, 5, 3, 3, 4]","[6, 1, 1, 4, 6, 2]",4,4,0,0
65,hwrblsy3h,73,27,0,0.751,experiment_FR,-4,52,4.0,0.7,24,28,4,1,"[4, 2, 4, 8, 3, 3]","[1, 5, 3, 3, 8, 8]",4,4,0,0
66,hwrblsy3h,75,27,1,0.895199999988079,experiment_FR,3,61,4.0,0.7,32,29,3,1,"[5, 7, 6, 8, 5, 1]","[5, 2, 7, 7, 4, 4]",5,4,1,1
67,hwrblsy3h,76,27,0,1.05280000001192,experiment_FR,-8,52,4.0,0.7,22,30,8,1,"[3, 3, 6, 5, 2, 3]","[3, 8, 2, 5, 5, 7]",4,5,-1,1
68,hwrblsy3h,77,27,0,0.7325,experiment_FR,-7,47,4.0,0.7,20,27,7,1,"[3, 6, 2, 1, 5, 3]","[1, 8, 2, 8, 1, 7]",5,4,1,1
69,hwrblsy3h,78,27,1,0.9405,experiment_FR,7,47,4.0,0.7,27,20,7,1,"[1, 6, 6, 6, 2, 6]","[1, 2, 1, 4, 7, 5]",3,5,-2,2
70,hwrblsy3h,79,27,1,0.67740000000596,experiment_FR,11,59,4.0,0.7,35,24,11,1,"[6, 8, 1, 5, 8, 7]","[6, 2, 5, 7, 2, 2]",5,4,1,1
71,hwrblsy3h,81,27,0,1.13,experiment_FR,0,56,4.0,0.7,28,28,0,0,"[8, 6, 5, 5, 3, 1]","[8, 6, 1, 5, 5, 3]",5,5,0,0
72,hwrblsy3h,82,27,1,0.700299999982119,experiment_FR,7,61,4.0,0.7,34,27,7,1,"[6, 7, 5, 4, 8, 4]","[5, 4, 5, 3, 7, 3]",5,4,1,1
73,hwrblsy3h,83,27,0,0.726399999976158,experiment_FR,-9,75,4.0,0.7,33,42,9,1,"[4, 6, 8, 7, 1, 7]","[5, 7, 8, 7, 7, 8]",5,3,2,2
74,hwrblsy3h,84,27,1,0.8995,experiment_FR,5,59,4.0,0.7,32,27,5,1,"[1, 8, 3, 5, 8, 7]","[2, 1, 8, 8, 5, 3]",5,5,0,0
75,hwrblsy3h,85,27,1,1.01929999998212,experiment_FR,6,56,4.0,0.7,31,25,6,1,"[6, 7, 3, 8, 5, 2]","[1, 2, 6, 4, 4, 8]",6,5,1,1
76,hwrblsy3h,86,27,0,1.23859999999404,experiment_FR,-14,40,4.0,0.7,13,27,14,1,"[4, 3, 1, 1, 1, 3]","[5, 5, 3, 4, 6, 4]",3,4,-1,1
77,hwrblsy3h,87,27,0,0.753299999982119,experiment_FR,-7,43,4.0,0.7,18,25,7,1,"[5, 2, 4, 2, 3, 2]","[6, 8, 4, 3, 1, 3]",4,5,-1,1
78,hwrblsy3h,88,27,1,1.541,experiment_FR,5,65,4.0,0.7,35,30,5,1,"[3, 8, 8, 7, 5, 4]","[1, 6, 8, 2, 6, 7]",5,5,0,0
79,hwrblsy3h,89,27,1,0.87459999999404,experiment_FR,3,51,4.0,0.7,27,24,3,1,"[5, 5, 5, 3, 7, 2]","[3, 2, 8, 6, 2, 3]",4,4,0,0
80,hwrblsy3h,90,27,0,1.0555,experiment_FR,1,53,4.0,0.7,27,26,1,0,"[4, 5, 5, 6, 3, 4]","[4, 7, 1, 5, 3, 6]",4,6,-2,2
81,hwrblsy3h,91,27,1,0.497899999976158,experiment_FR,6,52,4.0,0.7,29,23,6,1,"[6, 6, 2, 1, 6, 8]","[4, 1, 4, 4, 4, 6]",4,3,1,1
82,hwrblsy3h,92,27,1,0.698800000011921,experiment_FR,3,55,4.0,0.7,29,26,3,1,"[3, 2, 6, 6, 5, 7]","[3, 5, 1, 5, 4, 8]",5,5,0,0
83,hwrblsy3h,93,27,0,0.781700000017881,experiment_FR,0,48,4.0,0.7,24,24,0,0,"[3, 3, 6, 3, 1, 8]","[4, 8, 2, 5, 4, 1]",4,5,-1,1
84,hwrblsy3h,94,27,0,0.9325,experiment_FR,-5,39,4.0,0.7,17,22,5,1,"[1, 3, 6, 3, 2, 2]","[7, 4, 4, 3, 2, 2]",4,4,0,0
85,hwrblsy3h,95,27,0,0.970200000017881,experiment_FR,-9,53,4.0,0.7,22,31,9,1,"[1, 4, 5, 2, 2, 8]","[7, 5, 4, 3, 4, 8]",5,5,0,0
86,hwrblsy3h,96,27,1,0.802200000017881,experiment_FR,0,50,4.0,0.7,25,25,0,0,"[4, 6, 1, 8, 4, 2]","[5, 6, 4, 2, 2, 6]",5,4,1,1
87,hwrblsy3h,97,27,0,0.7695,experiment_FR,-6,56,4.0,0.7,25,31,6,1,"[6, 8, 3, 4, 3, 1]","[8, 8, 8, 2, 3, 2]",5,3,2,2
88,hwrblsy3h,98,27,0,0.635699999988079,experiment_FR,-4,58,4.0,0.7,27,31,4,1,"[8, 5, 1, 1, 4, 8]","[2, 7, 8, 1, 8, 5]",4,5,-1,1
89,hwrblsy3h,99,27,1,0.660299999982119,experiment_FR,3,49,4.0,0.7,26,23,3,1,"[2, 1, 3, 7, 6, 7]","[8, 3, 1, 4, 3, 4]",5,4,1,1
90,hwrblsy3h,100,27,1,1.09229999998212,experiment_FR,-3,47,4.0,0.7,22,25,3,0,"[8, 1, 8, 2, 2, 1]","[4, 8, 3, 4, 3, 3]",3,3,0,0
91,hwrblsy3h,101,27,1,0.478800000011921,experiment_FR,-1,71,4.0,0.7,35,36,1,0,"[8, 5, 6, 8, 2, 6]","[6, 4, 7, 8, 6, 5]",4,5,-1,1
92,hwrblsy3h,102,27,0,0.72459999999404,experiment_FR,-7,61,4.0,0.7,27,34,7,1,"[2, 3, 8, 7, 6, 1]","[6, 8, 7, 6, 6, 1]",6,4,2,2
93,hwrblsy3h,103,27,0,0.77,experiment_FR,-16,62,4.0,0.7,23,39,16,1,"[4, 1, 8, 3, 5, 2]","[6, 8, 3, 8, 8, 6]",6,3,3,3
94,hwrblsy3h,104,27,1,0.96940000000596,experiment_FR,4,62,4.0,0.7,33,29,4,1,"[2, 5, 7, 5, 7, 7]","[4, 2, 7, 7, 4, 5]",3,4,-1,1
95,hwrblsy3h,105,27,1,1.03610000002384,experiment_FR,4,42,4.0,0.7,23,19,4,1,"[2, 1, 4, 2, 8, 6]","[3, 3, 3, 1, 7, 2]",5,4,1,1
96,hwrblsy3h,106,27,1,0.78609999999404,experiment_FR,8,56,4.0,0.7,32,24,8,1,"[5, 4, 8, 8, 3, 4]","[6, 2, 7, 1, 2, 6]",4,4,0,0
97,hwrblsy3h,107,27,0,0.803299999982119,experiment_FR,-5,65,4.0,0.7,30,35,5,1,"[1, 3, 5, 8, 7, 6]","[6, 3, 8, 3, 7, 8]",6,4,2,2
98,hwrblsy3h,108,27,0,0.85890000000596,experiment_FR,-4,50,4.0,0.7,23,27,4,1,"[4, 4, 1, 7, 1, 6]","[5, 4, 6, 2, 2, 8]",4,5,-1,1
99,hwrblsy3h,109,27,0,0.75909999999404,experiment_FR,-15,39,4.0,0.7,12,27,15,1,"[1, 1, 2, 3, 3, 2]","[6, 5, 5, 3, 7, 1]",3,5,-2,2
100,hwrblsy3h,110,27,0,0.75309999999404,experiment_FR,-5,61,4.0,0.7,28,33,5,1,"[3, 5, 7, 2, 3, 8]","[5, 4, 7, 8, 7, 2]",5,5,0,0
101,hwrblsy3h,111,27,0,0.7755,experiment_FR,-7,51,4.0,0.7,22,29,7,1,"[7, 3, 1, 4, 5, 2]","[1, 5, 7, 6, 5, 5]",6,4,2,2
102,hwrblsy3h,112,27,1,0.724200000017881,experiment_FR,10,56,4.0,0.7,33,23,10,1,"[1, 8, 6, 7, 6, 5]","[2, 1, 4, 8, 2, 6]",5,5,0,0
103,hwrblsy3h,113,27,0,0.68990000000596,experiment_FR,-8,62,4.0,0.7,27,35,8,1,"[4, 4, 7, 2, 6, 4]","[8, 6, 3, 7, 8, 3]",4,4,0,0
104,hwrblsy3h,114,27,0,0.7485,experiment_FR,-17,61,4.0,0.7,22,39,17,1,"[2, 2, 3, 2, 7, 6]","[8, 6, 7, 3, 7, 8]",4,4,0,0
105,hwrblsy3h,115,27,1,1.23729999998212,experiment_FR,1,57,4.0,0.7,29,28,1,1,"[5, 3, 7, 4, 7, 3]","[6, 6, 6, 2, 6, 2]",4,2,2,2
106,hwrblsy3h,116,27,1,0.553699999988079,experiment_FR,3,63,4.0,0.7,33,30,3,1,"[5, 6, 7, 4, 3, 8]","[3, 6, 8, 1, 5, 7]",6,6,0,0
107,hwrblsy3h,117,27,1,0.626699999988079,experiment_FR,13,49,4.0,0.7,31,18,13,1,"[3, 5, 8, 6, 5, 4]","[4, 1, 1, 8, 1, 3]",5,4,1,1
108,hwrblsy3h,118,27,1,0.662,experiment_FR,2,54,4.0,0.7,28,26,2,1,"[5, 4, 6, 1, 8, 4]","[3, 7, 6, 2, 3, 5]",5,5,0,0
109,hwrblsy3h,119,27,0,0.699099999994039,experiment_FR,-13,71,4.0,0.7,29,42,13,1,"[5, 3, 5, 4, 4, 8]","[6, 6, 8, 8, 6, 8]",4,2,2,2
110,hwrblsy3h,120,27,1,0.908,experiment_FR,8,58,4.0,0.7,33,25,8,1,"[6, 6, 5, 6, 2, 8]","[6, 7, 2, 1, 8, 1]",4,5,-1,1
111,hwrblsy3h,121,27,0,1.07479999998212,experiment_FR,-4,56,4.0,0.7,26,30,4,1,"[1, 1, 6, 7, 8, 3]","[5, 1, 3, 7, 6, 8]",5,6,-1,1
112,hwrblsy3h,122,27,1,1.4735,experiment_FR,5,55,4.0,0.7,30,25,5,1,"[7, 2, 6, 6, 4, 5]","[5, 4, 2, 3, 7, 4]",5,5,0,0
113,hwrblsy3h,123,27,1,0.983299999982119,experiment_FR,2,54,4.0,0.7,28,26,2,1,"[3, 6, 2, 7, 5, 5]","[3, 6, 7, 2, 7, 1]",5,5,0,0
114,hwrblsy3h,124,27,1,0.78,experiment_FR,11,57,4.0,0.7,34,23,11,1,"[6, 6, 7, 8, 2, 5]","[3, 5, 6, 1, 2, 6]",5,5,0,0
115,hwrblsy3h,125,27,1,0.602200000017881,experiment_FR,19,69,4.0,0.7,44,25,19,1,"[8, 8, 6, 8, 8, 6]","[2, 8, 5, 4, 3, 3]",2,5,-3,3
116,hwrblsy3h,126,27,1,0.712,experiment_FR,8,46,4.0,0.7,27,19,8,1,"[5, 4, 2, 8, 6, 2]","[5, 1, 7, 2, 2, 2]",5,4,1,1
117,hwrblsy3h,127,27,1,0.706799999982119,experiment_FR,8,46,4.0,0.7,27,19,8,1,"[6, 6, 3, 1, 3, 8]","[6, 3, 1, 1, 4, 4]",4,4,0,0
118,hwrblsy3h,128,27,1,0.431299999982119,experiment_FR,5,55,4.0,0.7,30,25,5,1,"[3, 5, 8, 4, 8, 2]","[8, 3, 2, 5, 4, 3]",5,5,0,0
119,hwrblsy3h,129,27,1,0.78809999999404,experiment_FR,-1,43,4.0,0.7,21,22,1,0,"[7, 1, 4, 1, 7, 1]","[1, 7, 5, 3, 5, 1]",3,4,-1,1
120,hwrblsy3h,130,27,0,0.65809999999404,experiment_FR,-7,57,4.0,0.7,25,32,7,1,"[1, 6, 3, 6, 3, 6]","[2, 8, 5, 1, 8, 8]",3,4,-1,1
121,hwrblsy3h,131,27,0,0.66659999999404,experiment_FR,-10,56,4.0,0.7,23,33,10,1,"[3, 8, 1, 4, 5, 2]","[3, 8, 3, 7, 6, 6]",6,4,2,2
122,hwrblsy3h,132,27,0,0.778300000011921,experiment_FR,-8,68,4.0,0.7,30,38,8,1,"[3, 6, 7, 2, 8, 4]","[7, 4, 8, 8, 5, 6]",6,5,1,1
123,hwrblsy3h,133,27,1,0.95059999999404,experiment_FR,16,50,4.0,0.7,33,17,16,1,"[4, 5, 4, 7, 5, 8]","[1, 3, 3, 2, 6, 2]",4,4,0,0
124,hwrblsy3h,134,27,1,1.06090000000596,experiment_FR,-6,68,4.0,0.7,31,37,6,0,"[1, 6, 6, 8, 2, 8]","[6, 4, 6, 8, 6, 7]",4,4,0,0
125,hwrblsy3h,135,27,1,0.988,experiment_FR,6,60,4.0,0.7,33,27,6,1,"[6, 3, 5, 5, 7, 7]","[8, 3, 8, 4, 3, 1]",4,4,0,0
126,hwrblsy3h,136,27,1,0.83440000000596,experiment_FR,7,69,4.0,0.7,38,31,7,1,"[6, 3, 7, 8, 7, 7]","[7, 4, 1, 5, 8, 6]",4,6,-2,2
127,hwrblsy3h,137,27,0,0.8705,experiment_FR,-1,53,4.0,0.7,26,27,1,1,"[5, 3, 4, 2, 4, 8]","[3, 6, 5, 7, 2, 4]",5,6,-1,1
128,hwrblsy3h,138,27,0,0.76390000000596,experiment_FR,-1,67,4.0,0.7,33,34,1,1,"[5, 5, 7, 3, 8, 5]","[7, 7, 5, 2, 7, 6]",4,4,0,0
129,hwrblsy3h,139,27,0,0.78340000000596,experiment_FR,-6,54,4.0,0.7,24,30,6,1,"[6, 4, 2, 1, 5, 6]","[2, 4, 5, 4, 8, 7]",5,5,0,0
130,hwrblsy3h,140,27,1,0.732700000017881,experiment_FR,4,60,4.0,0.7,32,28,4,1,"[8, 8, 4, 2, 8, 2]","[4, 3, 4, 8, 2, 7]",3,5,-2,2
131,hwrblsy3h,141,27,1,1.1795,experiment_FR,6,56,4.0,0.7,31,25,6,1,"[4, 7, 6, 4, 3, 7]","[3, 3, 5, 4, 7, 3]",4,4,0,0
132,hwrblsy3h,142,27,0,1.15810000002384,experiment_FR,-7,43,4.0,0.7,18,25,7,1,"[1, 1, 8, 1, 1, 6]","[1, 8, 4, 3, 4, 5]",3,5,-2,2
133,hwrblsy3h,143,27,1,1.239,experiment_FR,-2,56,4.0,0.7,27,29,2,0,"[7, 4, 8, 1, 2, 5]","[5, 7, 6, 4, 6, 1]",6,5,1,1
134,hwrblsy3h,144,27,1,0.83159999999404,experiment_FR,12,44,4.0,0.7,28,16,12,1,"[6, 5, 7, 4, 3, 3]","[2, 2, 1, 4, 2, 5]",5,4,1,1
135,hwrblsy3h,145,27,1,0.64109999999404,experiment_FR,5,53,4.0,0.7,29,24,5,1,"[2, 1, 7, 5, 6, 8]","[4, 2, 5, 3, 8, 2]",6,5,1,1
136,hwrblsy3h,146,27,1,0.56340000000596,experiment_FR,-10,56,4.0,0.7,23,33,10,0,"[5, 2, 4, 8, 1, 3]","[5, 4, 5, 7, 4, 8]",6,4,2,2
137,hwrblsy3h,150,27,1,1.06659999999404,experiment_FR,13,55,4.0,0.7,34,21,13,1,"[5, 8, 7, 6, 6, 2]","[5, 1, 5, 4, 3, 3]",5,4,1,1
138,hwrblsy3h,1,27,1,1.03659999999404,experiment_VB,4,64,4.0,0.8,34,30,4,1,"[3, 4, 5, 7, 8, 7]","[7, 5, 5, 8, 1, 4]",5,5,0,0
139,hwrblsy3h,2,27,0,0.5655,experiment_VB,-26,62,4.0,0.8,18,44,26,1,"[1, 3, 1, 6, 5, 2]","[8, 7, 7, 7, 7, 8]",5,2,3,3
140,hwrblsy3h,3,27,1,0.834300000011921,experiment_VB,6,44,4.0,0.8,25,19,6,1,"[1, 7, 1, 2, 7, 7]","[3, 4, 1, 8, 1, 2]",3,5,-2,2
141,hwrblsy3h,4,27,1,0.7815,experiment_VB,9,55,4.0,0.8,32,23,9,1,"[2, 7, 6, 8, 8, 1]","[1, 2, 6, 4, 2, 8]",5,5,0,0
142,hwrblsy3h,5,27,1,0.76540000000596,experiment_VB,18,46,4.0,0.8,32,14,18,1,"[8, 8, 4, 2, 7, 3]","[3, 3, 4, 1, 1, 2]",5,4,1,1
143,hwrblsy3h,6,27,0,0.571800000011921,experiment_VB,-17,57,4.0,0.8,20,37,17,1,"[3, 3, 3, 2, 1, 8]","[7, 7, 7, 7, 1, 8]",4,3,1,1
144,hwrblsy3h,7,27,1,0.691700000017881,experiment_VB,9,37,4.0,0.8,23,14,9,1,"[1, 4, 8, 8, 1, 1]","[1, 3, 1, 6, 1, 2]",3,4,-1,1
145,hwrblsy3h,8,27,1,0.513,experiment_VB,11,59,4.0,0.8,35,24,11,1,"[8, 8, 5, 3, 3, 8]","[3, 3, 7, 2, 4, 5]",3,5,-2,2
146,hwrblsy3h,9,27,1,0.496700000017881,experiment_VB,13,63,4.0,0.8,38,25,13,1,"[7, 8, 8, 6, 3, 6]","[7, 2, 7, 3, 3, 3]",4,3,1,1
147,hwrblsy3h,11,27,0,0.884299999982119,experiment_VB,-6,60,4.0,0.8,27,33,6,1,"[1, 1, 6, 8, 3, 8]","[8, 6, 7, 3, 8, 1]",4,5,-1,1
148,hwrblsy3h,12,27,1,0.76240000000596,experiment_VB,10,52,4.0,0.8,31,21,10,1,"[5, 5, 8, 7, 2, 4]","[6, 1, 2, 7, 1, 4]",5,5,0,0
149,hwrblsy3h,13,27,0,1.01279999998212,experiment_VB,-9,53,4.0,0.8,22,31,9,1,"[3, 3, 7, 3, 4, 2]","[8, 5, 2, 4, 7, 5]",4,5,-1,1
150,hwrblsy3h,14,27,0,0.621800000011921,experiment_VB,-8,54,4.0,0.8,23,31,8,1,"[1, 7, 1, 1, 8, 5]","[8, 1, 5, 8, 5, 4]",4,4,0,0
151,hwrblsy3h,15,27,0,0.658700000017881,experiment_VB,-6,54,4.0,0.8,24,30,6,1,"[1, 7, 3, 7, 2, 4]","[1, 7, 5, 7, 8, 2]",5,5,0,0
152,hwrblsy3h,16,27,0,0.563800000011921,experiment_VB,-4,56,4.0,0.8,26,30,4,1,"[2, 6, 1, 3, 8, 6]","[2, 7, 8, 7, 4, 2]",5,4,1,1
153,hwrblsy3h,17,27,0,0.563,experiment_VB,1,61,4.0,0.8,31,30,1,0,"[4, 7, 4, 2, 8, 6]","[7, 4, 7, 8, 1, 3]",5,5,0,0
154,hwrblsy3h,18,27,0,0.560399999976158,experiment_VB,5,55,4.0,0.8,30,25,5,0,"[4, 6, 5, 1, 6, 8]","[6, 4, 8, 3, 2, 2]",5,5,0,0
155,hwrblsy3h,20,27,0,0.634699999988079,experiment_VB,-11,57,4.0,0.8,23,34,11,1,"[7, 2, 7, 2, 4, 1]","[7, 2, 3, 7, 7, 8]",4,4,0,0
156,hwrblsy3h,21,27,1,1.1815,experiment_VB,3,27,4.0,0.8,15,12,3,1,"[6, 2, 2, 2, 1, 2]","[2, 2, 4, 1, 1, 2]",3,3,0,0
157,hwrblsy3h,22,27,0,0.555699999988079,experiment_VB,-14,42,4.0,0.8,14,28,14,1,"[2, 1, 2, 1, 5, 3]","[2, 1, 7, 7, 7, 4]",4,4,0,0
158,hwrblsy3h,23,27,0,0.496800000011921,experiment_VB,-13,47,4.0,0.8,17,30,13,1,"[5, 4, 1, 2, 1, 4]","[2, 4, 6, 5, 6, 7]",4,5,-1,1
159,hwrblsy3h,24,27,0,0.623700000017881,experiment_VB,0,48,4.0,0.8,24,24,0,1,"[4, 3, 4, 8, 3, 2]","[3, 2, 4, 8, 1, 6]",4,6,-2,2
160,hwrblsy3h,25,27,0,0.5955,experiment_VB,-9,63,4.0,0.8,27,36,9,1,"[8, 6, 2, 2, 2, 7]","[5, 7, 2, 8, 6, 8]",4,5,-1,1
161,hwrblsy3h,26,27,0,0.46290000000596,experiment_VB,5,41,4.0,0.8,23,18,5,0,"[4, 4, 6, 1, 1, 7]","[7, 1, 1, 3, 1, 5]",4,4,0,0
162,hwrblsy3h,27,27,0,1.32190000000596,experiment_VB,3,53,4.0,0.8,28,25,3,0,"[3, 2, 6, 7, 2, 8]","[3, 7, 1, 7, 6, 1]",5,4,1,1
163,hwrblsy3h,28,27,1,0.751600000023842,experiment_VB,-4,66,4.0,0.8,31,35,4,0,"[2, 8, 8, 6, 6, 1]","[5, 3, 7, 8, 6, 6]",4,5,-1,1
164,hwrblsy3h,29,27,0,1.08490000000596,experiment_VB,-3,53,4.0,0.8,25,28,3,1,"[2, 6, 2, 3, 6, 6]","[7, 8, 2, 2, 4, 5]",3,5,-2,2
165,hwrblsy3h,30,27,1,0.728,experiment_VB,13,59,4.0,0.8,36,23,13,1,"[8, 4, 7, 2, 8, 7]","[2, 7, 3, 5, 4, 2]",4,5,-1,1
166,hwrblsy3h,31,27,1,1.78870000001788,experiment_VB,6,50,4.0,0.8,28,22,6,1,"[5, 4, 3, 7, 4, 5]","[3, 3, 7, 2, 3, 4]",4,4,0,0
167,hwrblsy3h,33,27,0,0.94,experiment_VB,-8,50,4.0,0.8,21,29,8,1,"[8, 2, 3, 4, 3, 1]","[5, 3, 5, 8, 1, 7]",5,5,0,0
168,hwrblsy3h,34,27,0,1.15020000001788,experiment_VB,-6,54,4.0,0.8,24,30,6,1,"[6, 2, 7, 1, 3, 5]","[6, 4, 4, 4, 4, 8]",6,3,3,3
169,hwrblsy3h,35,27,0,1.05359999999404,experiment_VB,5,53,4.0,0.8,29,24,5,0,"[8, 5, 7, 4, 3, 2]","[3, 7, 5, 3, 4, 2]",6,5,1,1
170,hwrblsy3h,36,27,0,0.797800000011921,experiment_VB,-5,59,4.0,0.8,27,32,5,1,"[3, 3, 7, 2, 4, 8]","[3, 2, 8, 8, 8, 3]",5,3,2,2
171,hwrblsy3h,37,27,0,0.926100000023842,experiment_VB,-4,48,4.0,0.8,22,26,4,1,"[6, 1, 1, 8, 1, 5]","[4, 2, 5, 6, 4, 5]",4,4,0,0
172,hwrblsy3h,38,27,1,0.72,experiment_VB,14,44,4.0,0.8,29,15,14,1,"[3, 7, 6, 4, 2, 7]","[6, 2, 3, 2, 1, 1]",5,4,1,1
173,hwrblsy3h,39,27,0,0.852,experiment_VB,-9,37,4.0,0.8,14,23,9,1,"[1, 4, 2, 4, 2, 1]","[3, 3, 2, 3, 4, 8]",3,4,-1,1
174,hwrblsy3h,41,27,0,1.62709999999404,experiment_VB,-2,40,4.0,0.8,19,21,2,1,"[1, 2, 3, 6, 4, 3]","[4, 4, 7, 2, 3, 1]",5,5,0,0
175,hwrblsy3h,42,27,0,0.575699999988079,experiment_VB,-11,57,4.0,0.8,23,34,11,1,"[3, 3, 5, 3, 3, 6]","[4, 4, 4, 6, 8, 8]",3,3,0,0
176,hwrblsy3h,43,27,1,0.765299999982119,experiment_VB,4,56,4.0,0.8,30,26,4,1,"[6, 7, 5, 4, 1, 7]","[7, 4, 6, 4, 3, 2]",5,5,0,0
177,hwrblsy3h,44,27,1,1.2655,experiment_VB,9,43,4.0,0.8,26,17,9,1,"[6, 1, 6, 8, 4, 1]","[1, 3, 2, 3, 7, 1]",4,4,0,0
178,hwrblsy3h,45,27,0,1.10580000001192,experiment_VB,-1,59,4.0,0.8,29,30,1,1,"[3, 8, 6, 2, 8, 2]","[3, 5, 6, 1, 7, 8]",4,6,-2,2
179,hwrblsy3h,46,27,1,1.44909999999404,experiment_VB,8,50,4.0,0.8,29,21,8,1,"[7, 5, 8, 5, 1, 3]","[2, 1, 8, 6, 1, 3]",5,5,0,0
180,hwrblsy3h,47,27,1,0.782600000023842,experiment_VB,1,53,4.0,0.8,27,26,1,1,"[8, 2, 1, 7, 2, 7]","[2, 1, 8, 7, 2, 6]",4,5,-1,1
181,hwrblsy3h,48,27,0,1.29419999998808,experiment_VB,-10,48,4.0,0.8,19,29,10,1,"[2, 2, 5, 1, 4, 5]","[6, 5, 7, 3, 6, 2]",4,5,-1,1
182,hwrblsy3h,49,27,0,1.71809999999404,experiment_VB,-2,38,4.0,0.8,18,20,2,1,"[2, 3, 4, 6, 1, 2]","[1, 2, 8, 1, 2, 6]",5,4,1,1
183,hwrblsy3h,50,27,0,0.75709999999404,experiment_VB,-18,38,4.0,0.8,10,28,18,1,"[1, 1, 1, 3, 1, 3]","[1, 8, 7, 5, 1, 6]",2,5,-3,3
184,hwrblsy3h,51,27,1,0.72959999999404,experiment_VB,-4,64,4.0,0.8,30,34,4,0,"[1, 7, 8, 7, 5, 2]","[3, 5, 6, 8, 4, 8]",5,5,0,0
185,hwrblsy3h,52,27,1,1.43990000000596,experiment_VB,2,64,4.0,0.8,33,31,2,1,"[7, 8, 4, 6, 3, 5]","[6, 8, 4, 8, 4, 1]",6,4,2,2
186,hwrblsy3h,53,27,1,0.652700000017881,experiment_VB,4,64,4.0,0.8,34,30,4,1,"[8, 7, 1, 3, 7, 8]","[8, 5, 1, 3, 8, 5]",4,4,0,0
187,hwrblsy3h,54,27,1,0.87590000000596,experiment_VB,4,62,4.0,0.8,33,29,4,1,"[7, 3, 5, 5, 6, 7]","[5, 6, 4, 4, 8, 2]",4,5,-1,1
188,hwrblsy3h,55,27,0,1.03240000000596,experiment_VB,-6,56,4.0,0.8,25,31,6,1,"[4, 8, 1, 1, 7, 4]","[1, 5, 8, 4, 8, 5]",4,4,0,0
189,hwrblsy3h,56,27,1,1.23190000000596,experiment_VB,10,46,4.0,0.8,28,18,10,1,"[8, 2, 3, 5, 2, 8]","[2, 5, 3, 1, 1, 6]",4,5,-1,1
190,hwrblsy3h,57,27,1,0.62359999999404,experiment_VB,4,46,4.0,0.8,25,21,4,1,"[2, 1, 2, 8, 7, 5]","[4, 2, 8, 3, 2, 2]",5,4,1,1
191,hwrblsy3h,58,27,0,0.882300000011921,experiment_VB,-9,65,4.0,0.8,28,37,9,1,"[2, 4, 1, 5, 8, 8]","[5, 7, 8, 7, 3, 7]",5,4,1,1
192,hwrblsy3h,59,27,1,0.672199999988079,experiment_VB,10,58,4.0,0.8,34,24,10,1,"[6, 6, 6, 2, 8, 6]","[5, 6, 6, 1, 2, 4]",3,5,-2,2
193,hwrblsy3h,60,27,0,0.814899999976158,experiment_VB,-13,55,4.0,0.8,21,34,13,1,"[3, 3, 2, 6, 5, 2]","[4, 4, 8, 6, 4, 8]",4,3,1,1
194,hwrblsy3h,61,27,0,0.78459999999404,experiment_VB,-5,55,4.0,0.8,25,30,5,1,"[5, 2, 5, 8, 3, 2]","[8, 5, 4, 8, 2, 3]",4,5,-1,1
195,hwrblsy3h,62,27,0,0.762700000017881,experiment_VB,-4,56,4.0,0.8,26,30,4,1,"[6, 3, 5, 2, 3, 7]","[1, 6, 5, 7, 3, 8]",5,6,-1,1
196,hwrblsy3h,63,27,0,0.599700000017881,experiment_VB,8,54,4.0,0.8,31,23,8,0,"[3, 7, 4, 6, 4, 7]","[2, 1, 1, 5, 6, 8]",4,5,-1,1
197,hwrblsy3h,64,27,0,0.7475,experiment_VB,-3,57,4.0,0.8,27,30,3,1,"[2, 4, 2, 4, 8, 7]","[5, 5, 1, 8, 7, 4]",4,5,-1,1
198,hwrblsy3h,65,27,1,1.73820000001788,experiment_VB,4,50,4.0,0.8,27,23,4,1,"[5, 2, 6, 4, 7, 3]","[1, 4, 5, 1, 4, 8]",6,4,2,2
199,hwrblsy3h,66,27,0,1.00909999999404,experiment_VB,-5,57,4.0,0.8,26,31,5,1,"[4, 8, 8, 3, 2, 1]","[7, 5, 8, 3, 7, 1]",5,5,0,0
200,hwrblsy3h,67,27,1,0.8725,experiment_VB,14,50,4.0,0.8,32,18,14,1,"[8, 6, 1, 4, 6, 7]","[1, 2, 4, 2, 5, 4]",5,4,1,1
201,hwrblsy3h,68,27,0,0.832,experiment_VB,-10,60,4.0,0.8,25,35,10,1,"[2, 7, 3, 3, 7, 3]","[2, 8, 6, 4, 8, 7]",3,5,-2,2
202,hwrblsy3h,69,27,0,1.48409999999404,experiment_VB,3,47,4.0,0.8,25,22,3,0,"[3, 4, 3, 8, 5, 2]","[4, 3, 2, 6, 1, 6]",5,5,0,0
203,hwrblsy3h,70,27,0,0.638200000017881,experiment_VB,-17,45,4.0,0.8,14,31,17,1,"[1, 1, 3, 5, 1, 3]","[6, 5, 6, 1, 6, 7]",3,4,-1,1
204,hwrblsy3h,71,27,1,1.59570000001788,experiment_VB,0,58,4.0,0.8,29,29,0,0,"[1, 6, 3, 8, 7, 4]","[7, 4, 7, 6, 4, 1]",6,4,2,2
205,hwrblsy3h,72,27,0,0.759799999982119,experiment_VB,-4,60,4.0,0.8,28,32,4,1,"[3, 6, 3, 4, 8, 4]","[5, 8, 2, 6, 5, 6]",4,4,0,0
206,hwrblsy3h,73,27,1,0.703699999988079,experiment_VB,0,52,4.0,0.8,26,26,0,0,"[2, 1, 8, 8, 6, 1]","[5, 4, 2, 4, 3, 8]",4,5,-1,1
207,hwrblsy3h,74,27,0,0.82259999999404,experiment_VB,-11,57,4.0,0.8,23,34,11,1,"[5, 7, 2, 1, 3, 5]","[5, 7, 1, 6, 8, 7]",5,5,0,0
208,hwrblsy3h,75,27,0,0.968699999988079,experiment_VB,-10,54,4.0,0.8,22,32,10,1,"[1, 3, 6, 2, 3, 7]","[6, 2, 5, 3, 8, 8]",5,5,0,0
209,hwrblsy3h,76,27,1,1.20430000001192,experiment_VB,1,49,4.0,0.8,25,24,1,1,"[3, 6, 5, 6, 1, 4]","[2, 3, 2, 4, 6, 7]",5,5,0,0
210,hwrblsy3h,77,27,0,0.671,experiment_VB,-10,44,4.0,0.8,17,27,10,1,"[1, 2, 1, 3, 6, 4]","[2, 6, 4, 4, 4, 7]",5,4,1,1
211,hwrblsy3h,78,27,1,0.515700000017881,experiment_VB,5,55,4.0,0.8,30,25,5,1,"[3, 6, 6, 8, 6, 1]","[3, 8, 2, 3, 6, 3]",4,4,0,0
212,hwrblsy3h,79,27,0,0.704799999982119,experiment_VB,-5,55,4.0,0.8,25,30,5,1,"[2, 5, 6, 4, 1, 7]","[7, 6, 1, 7, 7, 2]",6,4,2,2
213,hwrblsy3h,80,27,0,0.561,experiment_VB,8,52,4.0,0.8,30,22,8,0,"[6, 1, 8, 4, 4, 7]","[1, 2, 5, 7, 4, 3]",5,6,-1,1
214,hwrblsy3h,81,27,0,0.955200000017881,experiment_VB,2,62,4.0,0.8,32,30,2,0,"[8, 2, 1, 5, 8, 8]","[3, 5, 7, 3, 4, 8]",4,5,-1,1
215,hwrblsy3h,82,27,0,0.859800000011921,experiment_VB,5,43,4.0,0.8,24,19,5,0,"[5, 4, 6, 4, 2, 3]","[5, 1, 4, 1, 6, 2]",5,5,0,0
216,hwrblsy3h,83,27,0,0.64940000000596,experiment_VB,-6,44,4.0,0.8,19,25,6,1,"[3, 1, 1, 5, 5, 4]","[5, 6, 4, 7, 1, 2]",4,6,-2,2
217,hwrblsy3h,84,27,1,1.00259999999404,experiment_VB,5,41,4.0,0.8,23,18,5,1,"[5, 3, 3, 4, 7, 1]","[3, 1, 4, 1, 2, 7]",5,5,0,0
218,hwrblsy3h,85,27,1,0.826299999982119,experiment_VB,4,58,4.0,0.8,31,27,4,1,"[4, 8, 2, 4, 6, 7]","[6, 5, 3, 3, 4, 6]",5,4,1,1
219,hwrblsy3h,86,27,1,0.609399999976158,experiment_VB,9,53,4.0,0.8,31,22,9,1,"[1, 8, 7, 2, 5, 8]","[2, 4, 2, 5, 6, 3]",5,5,0,0
220,hwrblsy3h,87,27,1,0.925399999976158,experiment_VB,4,42,4.0,0.8,23,19,4,1,"[4, 4, 3, 1, 8, 3]","[1, 8, 2, 1, 2, 5]",4,4,0,0
221,hwrblsy3h,88,27,1,0.57759999999404,experiment_VB,3,65,4.0,0.8,34,31,3,1,"[7, 6, 6, 2, 7, 6]","[2, 5, 2, 8, 8, 6]",3,4,-1,1
222,hwrblsy3h,89,27,0,0.765599999994039,experiment_VB,-3,65,4.0,0.8,31,34,3,1,"[6, 4, 8, 2, 3, 8]","[1, 2, 8, 8, 7, 8]",5,4,1,1
223,hwrblsy3h,90,27,0,0.792800000011921,experiment_VB,-17,61,4.0,0.8,22,39,17,1,"[5, 1, 4, 3, 4, 5]","[7, 8, 3, 8, 5, 8]",4,4,0,0
224,hwrblsy3h,91,27,1,0.6075,experiment_VB,11,51,4.0,0.8,31,20,11,1,"[7, 3, 7, 8, 4, 2]","[1, 6, 4, 3, 3, 3]",5,4,1,1
225,hwrblsy3h,92,27,1,1.06480000001192,experiment_VB,-5,63,4.0,0.8,29,34,5,0,"[5, 1, 7, 6, 6, 4]","[8, 7, 6, 4, 3, 6]",5,5,0,0
226,hwrblsy3h,93,27,1,0.599699999988079,experiment_VB,3,61,4.0,0.8,32,29,3,1,"[8, 5, 7, 3, 1, 8]","[3, 7, 6, 4, 3, 6]",5,4,1,1
227,hwrblsy3h,94,27,1,0.66659999999404,experiment_VB,11,59,4.0,0.8,35,24,11,1,"[8, 3, 8, 5, 8, 3]","[3, 8, 5, 5, 2, 1]",3,5,-2,2
228,hwrblsy3h,95,27,1,0.627600000023842,experiment_VB,7,65,4.0,0.8,36,29,7,1,"[8, 5, 6, 6, 8, 3]","[3, 5, 7, 3, 8, 3]",4,4,0,0
229,hwrblsy3h,96,27,1,0.881700000017881,experiment_VB,-2,38,4.0,0.8,18,20,2,0,"[1, 3, 2, 3, 1, 8]","[2, 5, 4, 2, 4, 3]",4,4,0,0
230,hwrblsy3h,98,27,1,0.617700000017881,experiment_VB,9,49,4.0,0.8,29,20,9,1,"[2, 7, 1, 6, 5, 8]","[4, 6, 3, 3, 1, 3]",6,4,2,2
231,hwrblsy3h,99,27,1,0.5405,experiment_VB,13,49,4.0,0.8,31,18,13,1,"[8, 7, 4, 2, 8, 2]","[3, 8, 1, 4, 1, 1]",4,4,0,0
232,hwrblsy3h,100,27,0,0.805900000005961,experiment_VB,-6,44,4.0,0.8,19,25,6,1,"[2, 2, 2, 8, 1, 4]","[8, 7, 1, 3, 5, 1]",4,5,-1,1
233,hwrblsy3h,101,27,1,0.519800000011921,experiment_VB,4,66,4.0,0.8,35,31,4,1,"[7, 2, 8, 7, 8, 3]","[1, 8, 8, 4, 7, 3]",4,5,-1,1
234,hwrblsy3h,102,27,1,0.852100000023842,experiment_VB,11,51,4.0,0.8,31,20,11,1,"[3, 8, 4, 4, 6, 6]","[2, 1, 8, 4, 1, 4]",4,4,0,0
235,hwrblsy3h,103,27,1,0.683200000017881,experiment_VB,4,52,4.0,0.8,28,24,4,1,"[6, 8, 3, 6, 1, 4]","[4, 1, 8, 1, 5, 5]",5,4,1,1
236,hwrblsy3h,104,27,1,0.611300000011921,experiment_VB,9,51,4.0,0.8,30,21,9,1,"[3, 5, 3, 6, 7, 6]","[2, 3, 1, 5, 2, 8]",4,5,-1,1
237,hwrblsy3h,105,27,1,0.603299999982119,experiment_VB,6,54,4.0,0.8,30,24,6,1,"[5, 3, 7, 7, 7, 1]","[6, 5, 2, 1, 3, 7]",4,6,-2,2
238,hwrblsy3h,106,27,1,1.26290000000596,experiment_VB,-4,58,4.0,0.8,27,31,4,0,"[4, 5, 5, 4, 8, 1]","[8, 6, 4, 2, 6, 5]",4,5,-1,1
239,hwrblsy3h,107,27,0,0.830699999988079,experiment_VB,1,53,4.0,0.8,27,26,1,0,"[8, 7, 3, 3, 3, 3]","[7, 1, 1, 6, 5, 6]",3,4,-1,1
240,hwrblsy3h,108,27,1,1.68269999998808,experiment_VB,6,58,4.0,0.8,32,26,6,1,"[6, 3, 5, 7, 4, 7]","[2, 5, 1, 7, 3, 8]",5,6,-1,1
241,hwrblsy3h,110,27,0,0.8965,experiment_VB,-4,54,4.0,0.8,25,29,4,1,"[5, 6, 2, 3, 8, 1]","[4, 1, 5, 6, 6, 7]",6,5,1,1
242,hwrblsy3h,111,27,0,1.6875,experiment_VB,-8,50,4.0,0.8,21,29,8,1,"[3, 3, 7, 4, 3, 1]","[5, 1, 6, 4, 5, 8]",4,5,-1,1
243,hwrblsy3h,112,27,1,1.14640000000596,experiment_VB,7,37,4.0,0.8,22,15,7,1,"[3, 7, 3, 2, 6, 1]","[2, 3, 1, 3, 5, 1]",5,4,1,1
244,hwrblsy3h,113,27,1,1.24640000000596,experiment_VB,-3,53,4.0,0.8,25,28,3,0,"[7, 3, 3, 4, 4, 4]","[1, 8, 5, 3, 6, 5]",3,5,-2,2
245,hwrblsy3h,114,27,0,1.02530000001192,experiment_VB,3,61,4.0,0.8,32,29,3,0,"[6, 8, 8, 1, 4, 5]","[8, 1, 3, 8, 7, 2]",5,5,0,0
246,hwrblsy3h,115,27,1,0.931300000011921,experiment_VB,7,55,4.0,0.8,31,24,7,1,"[3, 6, 7, 4, 8, 3]","[2, 3, 4, 3, 8, 4]",5,4,1,1
247,hwrblsy3h,116,27,0,1.01490000000596,experiment_VB,-1,55,4.0,0.8,27,28,1,1,"[4, 1, 6, 8, 1, 7]","[2, 3, 5, 2, 8, 8]",5,4,1,1
248,hwrblsy3h,117,27,0,0.898199999988079,experiment_VB,0,64,4.0,0.8,32,32,0,0,"[8, 5, 6, 3, 8, 2]","[7, 7, 1, 8, 1, 8]",5,3,2,2
249,hwrblsy3h,118,27,1,0.764799999982119,experiment_VB,5,59,4.0,0.8,32,27,5,1,"[4, 8, 3, 8, 2, 7]","[5, 8, 5, 1, 6, 2]",5,5,0,0
250,hwrblsy3h,119,27,0,0.748199999988079,experiment_VB,-1,51,4.0,0.8,25,26,1,1,"[4, 5, 2, 7, 4, 3]","[1, 2, 8, 6, 4, 5]",5,6,-1,1
251,hwrblsy3h,120,27,0,1.20979999998212,experiment_VB,-3,61,4.0,0.8,29,32,3,1,"[2, 7, 8, 1, 8, 3]","[7, 5, 7, 7, 4, 2]",5,4,1,1
252,hwrblsy3h,123,27,1,0.787699999988079,experiment_VB,7,49,4.0,0.8,28,21,7,1,"[5, 8, 8, 2, 1, 4]","[2, 3, 8, 3, 1, 4]",5,5,0,0
253,hwrblsy3h,125,27,1,0.7045,experiment_VB,5,61,4.0,0.8,33,28,5,1,"[7, 4, 5, 6, 6, 5]","[2, 3, 7, 4, 8, 4]",4,5,-1,1
254,hwrblsy3h,126,27,0,0.751200000017881,experiment_VB,-11,59,4.0,0.8,24,35,11,1,"[2, 3, 3, 6, 8, 2]","[5, 2, 8, 6, 7, 7]",4,5,-1,1
255,hwrblsy3h,127,27,0,0.979800000011921,experiment_VB,-5,45,4.0,0.8,20,25,5,1,"[5, 1, 1, 6, 2, 5]","[8, 5, 1, 3, 4, 4]",4,5,-1,1
256,hwrblsy3h,128,27,0,0.75940000000596,experiment_VB,-11,53,4.0,0.8,21,32,11,1,"[1, 2, 8, 1, 4, 5]","[6, 6, 3, 7, 2, 8]",5,5,0,0
257,hwrblsy3h,130,27,1,1.24309999999404,experiment_VB,5,39,4.0,0.8,22,17,5,1,"[1, 8, 4, 5, 2, 2]","[2, 7, 5, 1, 1, 1]",5,4,1,1
258,hwrblsy3h,131,27,1,0.66440000000596,experiment_VB,12,60,4.0,0.8,36,24,12,1,"[3, 8, 5, 8, 5, 7]","[3, 8, 8, 1, 1, 3]",4,3,1,1
259,hwrblsy3h,132,27,0,1.10280000001192,experiment_VB,-8,46,4.0,0.8,19,27,8,1,"[6, 4, 3, 1, 3, 2]","[7, 4, 5, 2, 7, 2]",5,4,1,1
260,hwrblsy3h,133,27,1,1.13990000000596,experiment_VB,3,47,4.0,0.8,25,22,3,1,"[2, 6, 8, 1, 3, 5]","[5, 4, 3, 2, 2, 6]",6,5,1,1
261,hwrblsy3h,134,27,0,0.741400000005961,experiment_VB,-13,43,4.0,0.8,15,28,13,1,"[5, 3, 1, 2, 3, 1]","[8, 6, 4, 3, 3, 4]",4,4,0,0
262,hwrblsy3h,135,27,0,1.1195,experiment_VB,0,52,4.0,0.8,26,26,0,1,"[8, 5, 4, 5, 2, 2]","[6, 5, 2, 8, 1, 4]",4,6,-2,2
263,hwrblsy3h,136,27,1,0.5995,experiment_VB,2,54,4.0,0.8,28,26,2,1,"[6, 7, 2, 8, 1, 4]","[3, 8, 3, 1, 5, 6]",6,5,1,1
264,hwrblsy3h,137,27,0,0.651699999988079,experiment_VB,-7,37,4.0,0.8,15,22,7,1,"[3, 1, 2, 1, 7, 1]","[8, 2, 4, 6, 1, 1]",4,5,-1,1
265,hwrblsy3h,138,27,1,0.674100000023842,experiment_VB,3,43,4.0,0.8,23,20,3,1,"[7, 8, 1, 4, 1, 2]","[2, 2, 6, 4, 2, 4]",5,3,2,2
266,hwrblsy3h,139,27,0,1.13470000001788,experiment_VB,1,53,4.0,0.8,27,26,1,0,"[8, 6, 6, 2, 4, 1]","[3, 8, 2, 3, 7, 3]",5,4,1,1
267,hwrblsy3h,140,27,0,0.874200000017881,experiment_VB,-8,52,4.0,0.8,22,30,8,1,"[1, 6, 4, 1, 6, 4]","[3, 4, 8, 3, 4, 8]",3,3,0,0
268,hwrblsy3h,141,27,0,0.855899999976158,experiment_VB,-6,58,4.0,0.8,26,32,6,1,"[6, 6, 1, 8, 2, 3]","[6, 8, 2, 7, 4, 5]",5,6,-1,1
269,hwrblsy3h,142,27,0,1.19579999998212,experiment_VB,-6,64,4.0,0.8,29,35,6,1,"[8, 8, 2, 1, 7, 3]","[7, 4, 4, 7, 8, 5]",5,4,1,1
270,hwrblsy3h,143,27,0,0.779300000011921,experiment_VB,-1,59,4.0,0.8,29,30,1,1,"[5, 2, 7, 8, 5, 2]","[3, 4, 4, 3, 8, 8]",4,3,1,1
271,hwrblsy3h,144,27,0,1.21180000001192,experiment_VB,-13,57,4.0,0.8,22,35,13,1,"[1, 7, 1, 5, 7, 1]","[8, 2, 3, 6, 8, 8]",3,4,-1,1
272,hwrblsy3h,145,27,0,0.978199999988079,experiment_VB,1,57,4.0,0.8,29,28,1,0,"[8, 5, 4, 4, 4, 4]","[3, 7, 7, 8, 1, 2]",3,5,-2,2
273,hwrblsy3h,147,27,1,0.8565,experiment_VB,7,43,4.0,0.8,25,18,7,1,"[7, 5, 5, 1, 5, 2]","[1, 5, 7, 1, 2, 2]",4,4,0,0
274,hwrblsy3h,148,27,1,0.869300000011921,experiment_VB,6,60,4.0,0.8,33,27,6,1,"[6, 8, 5, 2, 4, 8]","[2, 2, 5, 7, 5, 6]",5,4,1,1
275,ua60hkvff,1,48,1,1.0005,experiment_VB,2,54,3.6,0.4,28,26,2,1,"[3, 8, 3, 2, 7, 5]","[2, 5, 3, 5, 3, 8]",5,4,1,1
276,ua60hkvff,2,48,0,1.329,experiment_VB,6,54,3.6,0.4,30,24,6,0,"[8, 4, 4, 7, 2, 5]","[2, 6, 6, 5, 1, 4]",5,5,0,0
277,ua60hkvff,3,48,0,1.20339999997616,experiment_VB,-8,40,3.6,0.4,16,24,8,1,"[5, 1, 5, 1, 2, 2]","[1, 6, 3, 1, 6, 7]",3,4,-1,1
278,ua60hkvff,5,48,1,1.02580000001192,experiment_VB,5,53,3.6,0.4,29,24,5,1,"[8, 7, 1, 5, 6, 2]","[2, 2, 3, 5, 4, 8]",6,5,1,1
279,ua60hkvff,6,48,1,0.9065,experiment_VB,11,59,3.6,0.4,35,24,11,1,"[5, 6, 1, 7, 8, 8]","[2, 7, 2, 5, 6, 2]",5,4,1,1
280,ua60hkvff,7,48,1,0.831900000035763,experiment_VB,8,50,3.6,0.4,29,21,8,1,"[7, 6, 8, 3, 1, 4]","[4, 4, 1, 3, 6, 3]",6,4,2,2
281,ua60hkvff,8,48,1,1.148,experiment_VB,13,57,3.6,0.4,35,22,13,1,"[4, 7, 7, 8, 2, 7]","[2, 1, 2, 7, 8, 2]",4,4,0,0
282,ua60hkvff,11,48,0,1.47860000002384,experiment_VB,-3,61,3.6,0.4,29,32,3,1,"[5, 2, 4, 7, 7, 4]","[5, 5, 8, 7, 1, 6]",4,5,-1,1
283,ua60hkvff,12,48,0,0.983,experiment_VB,5,65,3.6,0.4,35,30,5,0,"[7, 3, 8, 8, 3, 6]","[7, 8, 6, 3, 1, 5]",4,6,-2,2
284,ua60hkvff,13,48,1,1.38640000003576,experiment_VB,6,54,3.6,0.4,30,24,6,1,"[6, 6, 3, 7, 3, 5]","[2, 7, 6, 4, 3, 2]",4,5,-1,1
285,ua60hkvff,14,48,1,1.81170000004768,experiment_VB,3,51,3.6,0.4,27,24,3,1,"[7, 3, 5, 5, 2, 5]","[8, 2, 6, 3, 3, 2]",4,4,0,0
286,ua60hkvff,15,48,0,2.05780000001192,experiment_VB,-6,64,3.6,0.4,29,35,6,1,"[3, 4, 6, 4, 8, 4]","[7, 6, 4, 4, 6, 8]",4,4,0,0
287,ua60hkvff,16,48,0,1.76760000002384,experiment_VB,-6,56,3.6,0.4,25,31,6,1,"[8, 1, 6, 4, 3, 3]","[2, 8, 3, 2, 8, 8]",5,3,2,2
288,ua60hkvff,17,48,0,1.30969999998808,experiment_VB,-3,51,3.6,0.4,24,27,3,1,"[2, 2, 6, 2, 7, 5]","[4, 6, 1, 6, 5, 5]",4,4,0,0
289,ua60hkvff,18,48,0,0.848600000023842,experiment_VB,-11,57,3.6,0.4,23,34,11,1,"[2, 6, 5, 3, 1, 6]","[2, 7, 8, 5, 6, 6]",5,5,0,0
290,ua60hkvff,20,48,1,0.7245,experiment_VB,22,60,3.6,0.4,41,19,22,1,"[6, 8, 8, 6, 6, 7]","[1, 5, 2, 5, 4, 2]",3,4,-1,1
291,ua60hkvff,21,48,1,1.24169999998808,experiment_VB,3,55,3.6,0.4,29,26,3,1,"[6, 5, 7, 3, 6, 2]","[5, 5, 8, 1, 4, 3]",5,5,0,0
292,ua60hkvff,22,48,0,1.55040000003576,experiment_VB,-1,53,3.6,0.4,26,27,1,1,"[1, 6, 5, 4, 3, 7]","[6, 4, 4, 5, 3, 5]",6,4,2,2
293,ua60hkvff,23,48,1,1.03010000002384,experiment_VB,13,55,3.6,0.4,34,21,13,1,"[7, 6, 8, 5, 6, 2]","[1, 4, 3, 5, 3, 5]",5,4,1,1
294,ua60hkvff,24,48,1,1.18279999995232,experiment_VB,1,51,3.6,0.4,26,25,1,1,"[4, 6, 2, 6, 2, 6]","[6, 2, 7, 8, 1, 1]",3,5,-2,2
295,ua60hkvff,25,48,0,0.547399999976158,experiment_VB,-6,52,3.6,0.4,23,29,6,1,"[4, 4, 4, 1, 4, 6]","[8, 6, 6, 6, 1, 2]",3,4,-1,1
296,ua60hkvff,26,48,1,0.893699999988079,experiment_VB,3,49,3.6,0.4,26,23,3,1,"[7, 3, 7, 6, 2, 1]","[3, 4, 1, 8, 4, 3]",5,4,1,1
297,ua60hkvff,27,48,1,0.757300000011921,experiment_VB,-1,33,3.6,0.4,16,17,1,0,"[1, 2, 1, 6, 5, 1]","[6, 4, 3, 2, 1, 1]",4,5,-1,1
298,ua60hkvff,28,48,1,0.675399999976158,experiment_VB,0,52,3.6,0.4,26,26,0,0,"[7, 5, 4, 1, 2, 7]","[1, 6, 3, 7, 4, 5]",5,6,-1,1
299,ua60hkvff,29,48,1,1.00880000001192,experiment_VB,-3,59,3.6,0.4,28,31,3,0,"[7, 1, 5, 1, 6, 8]","[8, 5, 8, 1, 4, 5]",5,4,1,1
300,ua60hkvff,30,48,1,1.15289999997616,experiment_VB,6,40,3.6,0.4,23,17,6,1,"[1, 8, 4, 3, 6, 1]","[3, 3, 5, 2, 3, 1]",5,4,1,1
301,ua60hkvff,31,48,1,0.659699999988079,experiment_VB,7,51,3.6,0.4,29,22,7,1,"[3, 8, 6, 2, 5, 5]","[2, 3, 5, 4, 6, 2]",5,5,0,0
302,ua60hkvff,32,48,1,0.835100000023842,experiment_VB,1,55,3.6,0.4,28,27,1,1,"[6, 3, 3, 7, 5, 4]","[5, 1, 4, 3, 6, 8]",5,6,-1,1
303,ua60hkvff,33,48,1,0.683399999976158,experiment_VB,8,48,3.6,0.4,28,20,8,1,"[4, 7, 6, 2, 3, 6]","[4, 3, 1, 3, 2, 7]",5,5,0,0
304,ua60hkvff,34,48,1,0.876399999976158,experiment_VB,14,40,3.6,0.4,27,13,14,1,"[6, 4, 5, 3, 5, 4]","[3, 1, 1, 1, 4, 3]",4,3,1,1
305,ua60hkvff,35,48,1,1.708,experiment_VB,0,54,3.6,0.4,27,27,0,1,"[8, 4, 3, 4, 2, 6]","[3, 6, 3, 5, 4, 6]",5,4,1,1
306,ua60hkvff,36,48,0,1.32419999998808,experiment_VB,-7,47,3.6,0.4,20,27,7,1,"[5, 1, 3, 3, 6, 2]","[7, 8, 1, 1, 2, 8]",5,4,1,1
307,ua60hkvff,37,48,0,1.29380000001192,experiment_VB,-8,56,3.6,0.4,24,32,8,1,"[1, 7, 6, 2, 6, 2]","[4, 3, 5, 8, 4, 8]",4,4,0,0
308,ua60hkvff,38,48,1,1.06619999998808,experiment_VB,-4,48,3.6,0.4,22,26,4,0,"[3, 5, 3, 7, 3, 1]","[4, 3, 4, 4, 3, 8]",4,3,1,1
309,ua60hkvff,39,48,0,0.887599999964237,experiment_VB,-8,58,3.6,0.4,25,33,8,1,"[6, 1, 1, 7, 8, 2]","[6, 6, 6, 5, 2, 8]",5,4,1,1
310,ua60hkvff,40,48,1,1.19869999998808,experiment_VB,3,49,3.6,0.4,26,23,3,1,"[4, 7, 5, 6, 3, 1]","[5, 1, 6, 1, 2, 8]",6,5,1,1
311,ua60hkvff,41,48,1,0.972900000035763,experiment_VB,5,65,3.6,0.4,35,30,5,1,"[8, 5, 3, 4, 8, 7]","[6, 6, 8, 7, 1, 2]",5,5,0,0
312,ua60hkvff,42,48,0,1.71030000001192,experiment_VB,3,63,3.6,0.4,33,30,3,0,"[7, 4, 8, 4, 2, 8]","[6, 4, 7, 1, 6, 6]",4,4,0,0
313,ua60hkvff,43,48,1,0.941,experiment_VB,10,56,3.6,0.4,33,23,10,1,"[5, 4, 7, 4, 8, 5]","[4, 2, 5, 1, 8, 3]",4,6,-2,2
314,ua60hkvff,44,48,1,1.29730000001192,experiment_VB,-4,48,3.6,0.4,22,26,4,0,"[3, 7, 2, 4, 5, 1]","[6, 8, 6, 3, 1, 2]",6,5,1,1
315,ua60hkvff,45,48,0,1.19219999998808,experiment_VB,-3,47,3.6,0.4,22,25,3,1,"[2, 1, 8, 2, 8, 1]","[8, 3, 4, 4, 3, 3]",3,3,0,0
316,ua60hkvff,47,48,1,1.34109999996424,experiment_VB,13,57,3.6,0.4,35,22,13,1,"[7, 4, 6, 7, 8, 3]","[2, 4, 6, 1, 3, 6]",5,5,0,0
317,ua60hkvff,49,48,1,1.494,experiment_VB,6,56,3.6,0.4,31,25,6,1,"[1, 4, 6, 6, 7, 7]","[2, 4, 5, 4, 7, 3]",4,5,-1,1
318,ua60hkvff,50,48,1,1.647,experiment_VB,3,37,3.6,0.4,20,17,3,1,"[4, 3, 2, 6, 2, 3]","[1, 4, 1, 2, 2, 7]",4,4,0,0
319,ua60hkvff,51,48,1,1.41440000003576,experiment_VB,8,60,3.6,0.4,34,26,8,1,"[8, 4, 7, 5, 5, 5]","[6, 1, 6, 1, 8, 4]",4,4,0,0
320,ua60hkvff,52,48,1,1.20109999996424,experiment_VB,3,65,3.6,0.4,34,31,3,1,"[8, 8, 4, 7, 5, 2]","[4, 4, 8, 5, 3, 7]",5,5,0,0
321,ua60hkvff,53,48,0,1.85139999997616,experiment_VB,-5,45,3.6,0.4,20,25,5,1,"[1, 1, 2, 4, 5, 7]","[3, 3, 3, 2, 6, 8]",5,4,1,1
322,ua60hkvff,54,48,1,1.9065,experiment_VB,0,56,3.6,0.4,28,28,0,0,"[1, 6, 8, 5, 5, 3]","[6, 1, 8, 3, 5, 5]",5,5,0,0
323,ua60hkvff,55,48,0,0.887199999988079,experiment_VB,-5,55,3.6,0.4,25,30,5,1,"[4, 5, 4, 3, 2, 7]","[4, 5, 2, 7, 6, 6]",5,5,0,0
324,ua60hkvff,56,48,1,1.88009999996424,experiment_VB,8,46,3.6,0.4,27,19,8,1,"[5, 6, 2, 8, 2, 4]","[4, 3, 2, 1, 3, 6]",5,5,0,0
325,ua60hkvff,57,48,0,1.06269999998808,experiment_VB,-9,49,3.6,0.4,20,29,9,1,"[6, 4, 2, 1, 6, 1]","[5, 7, 4, 7, 3, 3]",4,4,0,0
326,ua60hkvff,58,48,1,1.65169999998808,experiment_VB,3,49,3.6,0.4,26,23,3,1,"[3, 5, 3, 5, 7, 3]","[3, 1, 6, 5, 4, 4]",3,5,-2,2
327,ua60hkvff,59,48,0,0.812100000023842,experiment_VB,-17,55,3.6,0.4,19,36,17,1,"[6, 2, 2, 3, 5, 1]","[4, 8, 8, 1, 7, 8]",5,4,1,1
328,ua60hkvff,60,48,1,1.60340000003576,experiment_VB,6,68,3.6,0.4,37,31,6,1,"[4, 7, 8, 6, 6, 6]","[1, 2, 6, 6, 8, 8]",4,4,0,0
329,ua60hkvff,61,48,1,0.946699999988079,experiment_VB,6,34,3.6,0.4,20,14,6,1,"[2, 4, 8, 1, 3, 2]","[4, 3, 2, 1, 1, 3]",5,4,1,1
330,ua60hkvff,62,48,1,0.9895,experiment_VB,2,50,3.6,0.4,26,24,2,1,"[4, 8, 6, 4, 2, 2]","[5, 5, 1, 7, 1, 5]",4,3,1,1
331,ua60hkvff,63,48,1,0.993800000011921,experiment_VB,9,47,3.6,0.4,28,19,9,1,"[5, 3, 8, 3, 3, 6]","[5, 2, 2, 5, 4, 1]",4,4,0,0
332,ua60hkvff,64,48,0,1.27340000003576,experiment_VB,-3,39,3.6,0.4,18,21,3,1,"[3, 3, 3, 5, 3, 1]","[4, 3, 3, 5, 1, 5]",3,4,-1,1
333,ua60hkvff,65,48,1,0.684,experiment_VB,15,39,3.6,0.4,27,12,15,1,"[6, 1, 5, 5, 7, 3]","[2, 1, 1, 3, 2, 3]",5,3,2,2
334,ua60hkvff,66,48,1,0.747600000023842,experiment_VB,13,49,3.6,0.4,31,18,13,1,"[5, 8, 6, 3, 5, 4]","[1, 1, 4, 1, 3, 8]",5,4,1,1
335,ua60hkvff,67,48,1,0.902199999988079,experiment_VB,9,75,3.6,0.4,42,33,9,1,"[7, 8, 7, 8, 7, 5]","[7, 6, 7, 1, 8, 4]",3,5,-2,2
336,ua60hkvff,68,48,0,0.924199999988079,experiment_VB,-6,60,3.6,0.4,27,33,6,1,"[1, 3, 4, 8, 8, 3]","[7, 3, 5, 7, 5, 6]",4,4,0,0
337,ua60hkvff,69,48,1,0.878399999976158,experiment_VB,4,50,3.6,0.4,27,23,4,1,"[2, 2, 8, 6, 5, 4]","[1, 1, 7, 4, 6, 4]",5,4,1,1
338,ua60hkvff,70,48,0,0.553300000011921,experiment_VB,-11,65,3.6,0.4,27,38,11,1,"[7, 2, 6, 6, 3, 3]","[8, 7, 7, 5, 3, 8]",4,4,0,0
339,ua60hkvff,71,48,1,0.553300000011921,experiment_VB,11,53,3.6,0.4,32,21,11,1,"[7, 6, 4, 3, 6, 6]","[1, 8, 6, 1, 2, 3]",4,5,-1,1
340,ua60hkvff,72,48,1,0.8535,experiment_VB,0,50,3.6,0.4,25,25,0,0,"[5, 2, 4, 6, 2, 6]","[8, 6, 4, 4, 1, 2]",4,5,-1,1
341,ua60hkvff,73,48,0,0.533399999976158,experiment_VB,-7,47,3.6,0.4,20,27,7,1,"[1, 7, 4, 2, 1, 5]","[1, 6, 2, 6, 6, 6]",5,3,2,2
342,ua60hkvff,74,48,0,0.818800000011921,experiment_VB,-8,62,3.6,0.4,27,35,8,1,"[7, 4, 4, 6, 2, 4]","[7, 8, 3, 8, 3, 6]",4,4,0,0
343,ua60hkvff,75,48,0,0.921900000035763,experiment_VB,5,31,3.6,0.4,18,13,5,0,"[3, 2, 3, 4, 3, 3]","[6, 1, 2, 2, 1, 1]",3,3,0,0
344,ua60hkvff,76,48,1,0.740800000011921,experiment_VB,17,61,3.6,0.4,39,22,17,1,"[7, 3, 7, 6, 8, 8]","[2, 7, 3, 6, 2, 2]",4,4,0,0
345,ua60hkvff,77,48,0,0.803100000023842,experiment_VB,-7,51,3.6,0.4,22,29,7,1,"[4, 1, 7, 3, 2, 5]","[6, 5, 1, 5, 7, 5]",6,4,2,2
346,ua60hkvff,78,48,0,0.725300000011921,experiment_VB,2,54,3.6,0.4,28,26,2,0,"[3, 4, 4, 2, 7, 8]","[7, 8, 5, 1, 4, 1]",5,5,0,0
347,ua60hkvff,79,48,0,1.4475,experiment_VB,3,55,3.6,0.4,29,26,3,0,"[1, 5, 4, 7, 8, 4]","[8, 8, 2, 3, 2, 3]",5,3,2,2
348,ua60hkvff,80,48,1,0.636300000011921,experiment_VB,4,60,3.6,0.4,32,28,4,1,"[2, 8, 4, 2, 8, 8]","[4, 8, 7, 2, 3, 4]",3,5,-2,2
349,ua60hkvff,81,48,1,1.15640000003576,experiment_VB,0,66,3.6,0.4,33,33,0,0,"[1, 5, 6, 8, 5, 8]","[3, 4, 6, 7, 7, 6]",4,4,0,0
350,ua60hkvff,82,48,0,1.11919999998808,experiment_VB,-11,53,3.6,0.4,21,32,11,1,"[1, 8, 3, 4, 3, 2]","[5, 8, 4, 2, 6, 7]",5,6,-1,1
351,ua60hkvff,83,48,0,0.437200000047684,experiment_VB,-13,71,3.6,0.4,29,42,13,1,"[8, 3, 5, 5, 4, 4]","[8, 8, 6, 8, 6, 6]",4,2,2,2
352,ua60hkvff,84,48,1,0.711700000047684,experiment_VB,5,45,3.6,0.4,25,20,5,1,"[2, 8, 7, 1, 4, 3]","[6, 6, 2, 3, 1, 2]",6,4,2,2
353,ua60hkvff,85,48,0,0.507099999964237,experiment_VB,-5,67,3.6,0.4,31,36,5,1,"[7, 3, 6, 3, 4, 8]","[5, 6, 8, 8, 2, 7]",5,5,0,0
354,ua60hkvff,86,48,0,0.935,experiment_VB,2,54,3.6,0.4,28,26,2,0,"[5, 3, 5, 6, 2, 7]","[6, 1, 2, 3, 7, 7]",5,5,0,0
355,ua60hkvff,87,48,0,0.481899999976158,experiment_VB,-5,53,3.6,0.4,24,29,5,1,"[8, 4, 3, 5, 3, 1]","[7, 2, 7, 8, 4, 1]",5,5,0,0
356,ua60hkvff,88,48,1,0.475199999988079,experiment_VB,19,69,3.6,0.4,44,25,19,1,"[8, 8, 6, 8, 6, 8]","[8, 3, 5, 4, 3, 2]",2,5,-3,3
357,ua60hkvff,89,48,0,0.623700000047684,experiment_VB,-13,45,3.6,0.4,16,29,13,1,"[6, 3, 1, 4, 1, 1]","[6, 5, 3, 6, 2, 7]",4,5,-1,1
358,ua60hkvff,90,48,1,0.843800000011921,experiment_VB,2,40,3.6,0.4,21,19,2,1,"[6, 7, 1, 3, 1, 3]","[4, 5, 4, 2, 1, 3]",4,5,-1,1
359,ua60hkvff,91,48,0,0.486199999988079,experiment_VB,-2,52,3.6,0.4,25,27,2,1,"[4, 3, 6, 8, 2, 2]","[7, 7, 4, 4, 1, 4]",5,3,2,2
360,ua60hkvff,92,48,1,0.581699999988079,experiment_VB,5,61,3.6,0.4,33,28,5,1,"[8, 7, 7, 2, 4, 5]","[7, 5, 3, 2, 3, 8]",5,5,0,0
361,ua60hkvff,93,48,1,0.517699999988079,experiment_VB,8,46,3.6,0.4,27,19,8,1,"[1, 6, 6, 3, 8, 3]","[3, 1, 6, 4, 4, 1]",4,4,0,0
362,ua60hkvff,94,48,1,0.62,experiment_VB,5,49,3.6,0.4,27,22,5,1,"[5, 2, 7, 6, 5, 2]","[3, 1, 5, 6, 1, 6]",4,4,0,0
363,ua60hkvff,95,48,1,0.577100000023842,experiment_VB,-3,63,3.6,0.4,30,33,3,0,"[6, 1, 3, 7, 5, 8]","[5, 3, 8, 6, 7, 4]",6,6,0,0
364,ua60hkvff,96,48,0,0.540199999988079,experiment_VB,-17,51,3.6,0.4,17,34,17,1,"[4, 4, 1, 1, 1, 6]","[5, 2, 8, 7, 8, 4]",3,5,-2,2
365,ua60hkvff,97,48,1,0.607400000035763,experiment_VB,13,57,3.6,0.4,35,22,13,1,"[8, 5, 7, 8, 1, 6]","[2, 8, 4, 4, 3, 1]",5,5,0,0
366,ua60hkvff,98,48,0,0.709800000011921,experiment_VB,-5,39,3.6,0.4,17,22,5,1,"[2, 3, 2, 6, 1, 3]","[7, 2, 4, 4, 3, 2]",4,4,0,0
367,ua60hkvff,99,48,0,0.544,experiment_VB,-12,56,3.6,0.4,22,34,12,1,"[6, 1, 3, 1, 6, 5]","[5, 8, 7, 4, 3, 7]",4,5,-1,1
368,ua60hkvff,100,48,1,0.982400000035763,experiment_VB,6,56,3.6,0.4,31,25,6,1,"[3, 6, 2, 7, 5, 8]","[8, 6, 4, 4, 1, 2]",6,5,1,1
369,ua60hkvff,101,48,1,0.558600000023842,experiment_VB,7,61,3.6,0.4,34,27,7,1,"[6, 1, 7, 6, 6, 8]","[3, 7, 6, 8, 2, 1]",4,6,-2,2
370,ua60hkvff,102,48,0,0.738199999988079,experiment_VB,-8,58,3.6,0.4,25,33,8,1,"[2, 3, 6, 1, 6, 7]","[5, 8, 8, 1, 7, 4]",5,5,0,0
371,ua60hkvff,103,48,0,0.554699999988079,experiment_VB,-10,56,3.6,0.4,23,33,10,1,"[8, 2, 2, 1, 4, 6]","[6, 6, 5, 7, 8, 1]",5,5,0,0
372,ua60hkvff,104,48,0,0.475400000035763,experiment_VB,-13,53,3.6,0.4,20,33,13,1,"[5, 2, 3, 1, 7, 2]","[6, 7, 7, 2, 4, 7]",5,4,1,1
373,ua60hkvff,105,48,1,1.60160000002384,experiment_VB,2,36,3.6,0.4,19,17,2,1,"[2, 2, 4, 4, 5, 2]","[3, 6, 1, 2, 4, 1]",3,5,-2,2
374,ua60hkvff,106,48,0,0.561800000011921,experiment_VB,-7,57,3.6,0.4,25,32,7,1,"[6, 3, 1, 6, 6, 3]","[8, 2, 1, 5, 8, 8]",3,4,-1,1
375,ua60hkvff,107,48,0,0.983900000035763,experiment_VB,1,57,3.6,0.4,29,28,1,0,"[3, 7, 7, 5, 3, 4]","[2, 6, 2, 6, 6, 6]",4,2,2,2
376,ua60hkvff,108,48,1,1.05210000002384,experiment_VB,4,42,3.6,0.4,23,19,4,1,"[1, 6, 2, 2, 8, 4]","[3, 2, 3, 1, 3, 7]",5,4,1,1
377,ua60hkvff,109,48,1,0.788700000047684,experiment_VB,4,62,3.6,0.4,33,29,4,1,"[7, 2, 7, 5, 7, 5]","[2, 7, 4, 5, 4, 7]",3,4,-1,1
378,ua60hkvff,110,48,1,0.733800000011921,experiment_VB,8,46,3.6,0.4,27,19,8,1,"[4, 6, 2, 8, 5, 2]","[2, 7, 1, 2, 2, 5]",5,4,1,1
379,ua60hkvff,111,48,1,0.513099999964237,experiment_VB,10,56,3.6,0.4,33,23,10,1,"[8, 7, 6, 6, 3, 3]","[2, 3, 1, 8, 4, 5]",4,6,-2,2
380,ua60hkvff,112,48,0,0.363899999976158,experiment_VB,-8,52,3.6,0.4,22,30,8,1,"[2, 3, 3, 3, 5, 6]","[8, 5, 3, 7, 5, 2]",4,5,-1,1
381,ua60hkvff,113,48,0,0.550100000023842,experiment_VB,4,52,3.6,0.4,28,24,4,0,"[7, 6, 4, 4, 3, 4]","[4, 5, 1, 2, 6, 6]",4,5,-1,1
382,ua60hkvff,114,48,0,0.441300000011921,experiment_VB,8,68,3.6,0.4,38,30,8,0,"[5, 8, 8, 6, 4, 7]","[7, 6, 8, 3, 2, 4]",5,6,-1,1
383,ua60hkvff,115,48,1,0.444900000035763,experiment_VB,4,52,3.6,0.4,28,24,4,1,"[5, 8, 8, 3, 3, 1]","[4, 4, 2, 8, 3, 3]",4,4,0,0
384,ua60hkvff,116,48,0,0.565800000011921,experiment_VB,-12,44,3.6,0.4,16,28,12,1,"[2, 5, 4, 2, 2, 1]","[3, 6, 4, 3, 7, 5]",4,5,-1,1
385,ua60hkvff,117,48,0,0.827599999964237,experiment_VB,0,52,3.6,0.4,26,26,0,0,"[4, 2, 5, 1, 7, 7]","[8, 1, 8, 3, 3, 3]",5,3,2,2
386,ua60hkvff,118,48,0,0.637599999964237,experiment_VB,-1,59,3.6,0.4,29,30,1,1,"[7, 3, 3, 8, 6, 2]","[7, 7, 3, 3, 3, 7]",5,2,3,3
387,ua60hkvff,119,48,0,0.944799999952316,experiment_VB,-1,37,3.6,0.4,18,19,1,1,"[1, 2, 1, 1, 6, 7]","[6, 1, 2, 8, 1, 1]",4,4,0,0
388,ua60hkvff,120,48,0,0.516300000011921,experiment_VB,-7,45,3.6,0.4,19,26,7,1,"[6, 4, 2, 1, 1, 5]","[3, 8, 4, 6, 3, 2]",5,5,0,0
389,ua60hkvff,121,48,0,0.712899999976158,experiment_VB,2,54,3.6,0.4,28,26,2,0,"[4, 4, 1, 6, 8, 5]","[7, 3, 2, 5, 3, 6]",5,5,0,0
390,ua60hkvff,122,48,1,0.439199999988079,experiment_VB,8,62,3.6,0.4,35,27,8,1,"[7, 5, 7, 8, 6, 2]","[5, 2, 8, 5, 3, 4]",5,5,0,0
391,ua60hkvff,123,48,0,0.412699999988079,experiment_VB,-1,67,3.6,0.4,33,34,1,1,"[5, 8, 3, 7, 5, 5]","[7, 7, 6, 5, 7, 2]",4,4,0,0
392,ua60hkvff,124,48,1,0.847600000023842,experiment_VB,8,58,3.6,0.4,33,25,8,1,"[4, 8, 2, 7, 5, 7]","[8, 6, 4, 1, 3, 3]",5,5,0,0
393,ua60hkvff,125,48,1,0.463,experiment_VB,6,56,3.6,0.4,31,25,6,1,"[7, 6, 3, 4, 4, 7]","[4, 3, 3, 5, 7, 3]",4,4,0,0
394,ua60hkvff,126,48,1,0.685600000023842,experiment_VB,7,43,3.6,0.4,25,18,7,1,"[5, 8, 3, 4, 1, 4]","[1, 8, 1, 1, 1, 6]",5,3,2,2
395,ua60hkvff,127,48,1,0.643100000023842,experiment_VB,0,48,3.6,0.4,24,24,0,0,"[3, 6, 3, 3, 8, 1]","[4, 1, 2, 8, 4, 5]",4,5,-1,1
396,ua60hkvff,128,48,1,0.879100000023842,experiment_VB,4,58,3.6,0.4,31,27,4,1,"[8, 8, 2, 5, 7, 1]","[8, 8, 1, 4, 5, 1]",5,4,1,1
397,ua60hkvff,129,48,1,0.6405,experiment_VB,7,67,3.6,0.4,37,30,7,1,"[7, 8, 3, 6, 7, 6]","[4, 6, 4, 7, 7, 2]",4,4,0,0
398,ua60hkvff,130,48,0,0.576899999976158,experiment_VB,-1,71,3.6,0.4,35,36,1,1,"[8, 5, 6, 6, 2, 8]","[7, 6, 8, 5, 4, 6]",4,5,-1,1
399,ua60hkvff,131,48,1,0.4585,experiment_VB,6,52,3.6,0.4,29,23,6,1,"[8, 7, 7, 4, 2, 1]","[1, 8, 4, 6, 3, 1]",5,5,0,0
400,ua60hkvff,132,48,0,0.701600000023842,experiment_VB,-9,53,3.6,0.4,22,31,9,1,"[4, 2, 2, 8, 1, 5]","[4, 3, 7, 4, 8, 5]",5,5,0,0
401,ua60hkvff,133,48,0,0.697,experiment_VB,-5,59,3.6,0.4,27,32,5,1,"[1, 8, 8, 2, 3, 5]","[7, 1, 3, 8, 8, 5]",5,5,0,0
402,ua60hkvff,134,48,0,0.4475,experiment_VB,-15,51,3.6,0.4,18,33,15,1,"[7, 1, 1, 5, 3, 1]","[7, 8, 5, 5, 6, 2]",4,5,-1,1
403,ua60hkvff,135,48,1,0.486900000035763,experiment_VB,16,50,3.6,0.4,33,17,16,1,"[2, 8, 8, 4, 8, 3]","[5, 5, 1, 1, 4, 1]",4,3,1,1
404,ua60hkvff,136,48,1,0.566200000047684,experiment_VB,4,44,3.6,0.4,24,20,4,1,"[4, 2, 7, 2, 1, 8]","[1, 7, 3, 7, 1, 1]",5,3,2,2
405,ua60hkvff,137,48,0,0.960299999952316,experiment_VB,-2,56,3.6,0.4,27,29,2,1,"[4, 6, 6, 3, 6, 2]","[6, 6, 3, 7, 5, 2]",4,5,-1,1
406,ua60hkvff,138,48,0,0.531899999976158,experiment_VB,-7,61,3.6,0.4,27,34,7,1,"[5, 3, 4, 5, 3, 7]","[4, 7, 6, 5, 8, 4]",4,5,-1,1
407,ua60hkvff,139,48,1,0.542400000035763,experiment_VB,9,51,3.6,0.4,30,21,9,1,"[2, 1, 7, 7, 5, 8]","[8, 1, 3, 1, 4, 4]",5,4,1,1
408,ua60hkvff,140,48,0,0.428300000011921,experiment_VB,-5,55,3.6,0.4,25,30,5,1,"[2, 5, 8, 3, 3, 4]","[3, 4, 8, 2, 5, 8]",5,5,0,0
409,ua60hkvff,141,48,0,0.798199999988079,experiment_VB,-1,43,3.6,0.4,21,22,1,1,"[7, 1, 7, 1, 1, 4]","[7, 3, 1, 5, 1, 5]",3,4,-1,1
410,ua60hkvff,142,48,0,0.455,experiment_VB,-9,65,3.6,0.4,28,37,9,1,"[3, 3, 5, 6, 3, 8]","[8, 7, 2, 7, 8, 5]",4,4,0,0
411,ua60hkvff,143,48,0,0.419599999964237,experiment_VB,-16,50,3.6,0.4,17,33,16,1,"[3, 2, 6, 1, 2, 3]","[7, 5, 5, 8, 4, 4]",4,4,0,0
412,ua60hkvff,144,48,1,1.43810000002384,experiment_VB,-3,45,3.6,0.4,21,24,3,0,"[3, 8, 2, 2, 5, 1]","[6, 1, 4, 5, 4, 4]",5,4,1,1
413,ua60hkvff,145,48,1,0.864699999988079,experiment_VB,8,46,3.6,0.4,27,19,8,1,"[4, 1, 6, 4, 7, 5]","[2, 4, 1, 1, 3, 8]",5,5,0,0
414,ua60hkvff,146,48,0,0.484100000023842,experiment_VB,-3,49,3.6,0.4,23,26,3,1,"[1, 3, 5, 7, 6, 1]","[2, 7, 8, 2, 2, 5]",5,4,1,1
415,ua60hkvff,147,48,1,0.604699999988079,experiment_VB,-1,53,3.6,0.4,26,27,1,0,"[2, 1, 2, 7, 7, 7]","[5, 2, 5, 7, 2, 6]",3,4,-1,1
416,ua60hkvff,148,48,0,0.518900000035763,experiment_VB,-2,56,3.6,0.4,27,29,2,1,"[2, 4, 8, 1, 7, 5]","[4, 6, 1, 5, 6, 7]",6,5,1,1
417,ua60hkvff,149,48,1,0.571400000035763,experiment_VB,7,69,3.6,0.4,38,31,7,1,"[7, 6, 8, 3, 7, 7]","[8, 5, 6, 4, 1, 7]",4,6,-2,2
418,ua60hkvff,150,48,1,0.483800000011921,experiment_VB,16,62,3.6,0.4,39,23,16,1,"[8, 8, 3, 6, 6, 8]","[3, 8, 1, 2, 4, 5]",3,6,-3,3
419,ua60hkvff,1,48,1,1.067,experiment_FR,4,64,4.6,0.4,34,30,4,1,"[4, 3, 7, 5, 7, 8]","[5, 4, 5, 7, 1, 8]",5,5,0,0
420,ua60hkvff,2,48,0,0.497800000011921,experiment_FR,-26,62,4.6,0.4,18,44,26,1,"[1, 3, 2, 1, 5, 6]","[8, 7, 7, 7, 8, 7]",5,2,3,3
421,ua60hkvff,3,48,1,0.7775,experiment_FR,6,44,4.6,0.4,25,19,6,1,"[1, 7, 7, 1, 7, 2]","[8, 1, 4, 1, 3, 2]",3,5,-2,2
422,ua60hkvff,4,48,1,0.830600000023842,experiment_FR,9,55,4.6,0.4,32,23,9,1,"[7, 1, 6, 8, 2, 8]","[1, 2, 2, 8, 4, 6]",5,5,0,0
423,ua60hkvff,5,48,1,0.701300000011921,experiment_FR,18,46,4.6,0.4,32,14,18,1,"[8, 4, 2, 8, 7, 3]","[1, 3, 4, 1, 3, 2]",5,4,1,1
424,ua60hkvff,6,48,0,0.529100000023842,experiment_FR,-17,57,4.6,0.4,20,37,17,1,"[2, 3, 1, 3, 8, 3]","[1, 7, 8, 7, 7, 7]",4,3,1,1
425,ua60hkvff,7,48,1,0.585099999964237,experiment_FR,9,37,4.6,0.4,23,14,9,1,"[4, 8, 8, 1, 1, 1]","[6, 2, 3, 1, 1, 1]",3,4,-1,1
426,ua60hkvff,8,48,1,0.587800000011921,experiment_FR,11,59,4.6,0.4,35,24,11,1,"[5, 3, 3, 8, 8, 8]","[3, 4, 7, 5, 3, 2]",3,5,-2,2
427,ua60hkvff,9,48,1,0.923600000023842,experiment_FR,13,63,4.6,0.4,38,25,13,1,"[8, 6, 7, 6, 3, 8]","[7, 3, 7, 3, 3, 2]",4,3,1,1
428,ua60hkvff,10,48,1,0.685399999976158,experiment_FR,-1,37,4.6,0.4,18,19,1,0,"[7, 1, 6, 2, 1, 1]","[2, 4, 4, 7, 1, 1]",4,4,0,0
429,ua60hkvff,14,48,0,1.33229999995232,experiment_FR,-8,54,4.6,0.4,23,31,8,1,"[7, 1, 1, 8, 1, 5]","[5, 8, 5, 1, 4, 8]",4,4,0,0
430,ua60hkvff,15,48,0,0.655100000023842,experiment_FR,-6,54,4.6,0.4,24,30,6,1,"[2, 7, 4, 7, 3, 1]","[7, 7, 8, 1, 2, 5]",5,5,0,0
431,ua60hkvff,16,48,0,0.615400000035763,experiment_FR,-4,56,4.6,0.4,26,30,4,1,"[3, 6, 1, 2, 8, 6]","[8, 2, 7, 4, 7, 2]",5,4,1,1
432,ua60hkvff,17,48,0,1.3155,experiment_FR,1,61,4.6,0.4,31,30,1,0,"[6, 4, 8, 7, 4, 2]","[7, 4, 1, 8, 3, 7]",5,5,0,0
433,ua60hkvff,18,48,1,1.23880000001192,experiment_FR,5,55,4.6,0.4,30,25,5,1,"[8, 6, 4, 6, 1, 5]","[8, 2, 4, 3, 2, 6]",5,5,0,0
434,ua60hkvff,19,48,0,0.993900000035763,experiment_FR,-5,43,4.6,0.4,19,24,5,1,"[7, 4, 2, 4, 1, 1]","[1, 5, 8, 2, 4, 4]",4,5,-1,1
435,ua60hkvff,20,48,0,0.599799999952316,experiment_FR,-11,57,4.6,0.4,23,34,11,1,"[7, 4, 1, 2, 7, 2]","[2, 7, 3, 7, 8, 7]",4,4,0,0
436,ua60hkvff,21,48,1,0.821300000011921,experiment_FR,3,27,4.6,0.4,15,12,3,1,"[1, 2, 2, 2, 6, 2]","[2, 2, 1, 1, 2, 4]",3,3,0,0
437,ua60hkvff,22,48,0,0.485800000011921,experiment_FR,-14,42,4.6,0.4,14,28,14,1,"[5, 2, 1, 3, 2, 1]","[7, 7, 1, 2, 4, 7]",4,4,0,0
438,ua60hkvff,23,48,0,0.730100000023842,experiment_FR,-13,47,4.6,0.4,17,30,13,1,"[4, 1, 2, 5, 1, 4]","[6, 2, 7, 5, 6, 4]",4,5,-1,1
439,ua60hkvff,24,48,1,1.155,experiment_FR,0,48,4.6,0.4,24,24,0,0,"[8, 3, 4, 4, 2, 3]","[1, 6, 4, 3, 8, 2]",4,6,-2,2
440,ua60hkvff,25,48,1,0.905100000023842,experiment_FR,-9,63,4.6,0.4,27,36,9,0,"[6, 7, 2, 2, 2, 8]","[5, 2, 8, 7, 8, 6]",4,5,-1,1
441,ua60hkvff,26,48,1,0.515300000011921,experiment_FR,5,41,4.6,0.4,23,18,5,1,"[6, 7, 4, 1, 1, 4]","[1, 3, 5, 7, 1, 1]",4,4,0,0
442,ua60hkvff,27,48,1,1.3845,experiment_FR,3,53,4.6,0.4,28,25,3,1,"[2, 6, 7, 2, 8, 3]","[7, 6, 3, 1, 1, 7]",5,4,1,1
443,ua60hkvff,29,48,0,0.745800000011921,experiment_FR,-3,53,4.6,0.4,25,28,3,1,"[6, 2, 6, 3, 2, 6]","[8, 7, 2, 4, 5, 2]",3,5,-2,2
444,ua60hkvff,30,48,1,0.557700000047684,experiment_FR,13,59,4.6,0.4,36,23,13,1,"[8, 7, 4, 8, 2, 7]","[3, 7, 2, 5, 4, 2]",4,5,-1,1
445,ua60hkvff,31,48,1,1.58730000001192,experiment_FR,6,50,4.6,0.4,28,22,6,1,"[5, 3, 4, 4, 7, 5]","[4, 3, 3, 3, 2, 7]",4,4,0,0
446,ua60hkvff,32,48,0,0.800799999952316,experiment_FR,1,73,4.6,0.4,37,36,1,0,"[3, 8, 8, 6, 7, 5]","[7, 8, 8, 2, 4, 7]",5,4,1,1
447,ua60hkvff,33,48,0,1.00980000001192,experiment_FR,-8,50,4.6,0.4,21,29,8,1,"[4, 8, 1, 3, 3, 2]","[1, 3, 7, 5, 5, 8]",5,5,0,0
448,ua60hkvff,34,48,0,1.1065,experiment_FR,-6,54,4.6,0.4,24,30,6,1,"[6, 7, 5, 2, 3, 1]","[4, 4, 6, 4, 4, 8]",6,3,3,3
449,ua60hkvff,35,48,1,0.878300000011921,experiment_FR,5,53,4.6,0.4,29,24,5,1,"[7, 8, 4, 5, 3, 2]","[5, 7, 2, 3, 4, 3]",6,5,1,1
450,ua60hkvff,36,48,0,0.540899999976158,experiment_FR,-5,59,4.6,0.4,27,32,5,1,"[4, 8, 3, 2, 7, 3]","[2, 3, 8, 3, 8, 8]",5,3,2,2
451,ua60hkvff,37,48,1,0.5955,experiment_FR,-4,48,4.6,0.4,22,26,4,0,"[8, 1, 6, 5, 1, 1]","[6, 4, 5, 4, 2, 5]",4,4,0,0
452,ua60hkvff,38,48,1,0.579900000035763,experiment_FR,14,44,4.6,0.4,29,15,14,1,"[2, 3, 4, 7, 7, 6]","[1, 3, 1, 2, 6, 2]",5,4,1,1
453,ua60hkvff,39,48,0,0.608300000011921,experiment_FR,-9,37,4.6,0.4,14,23,9,1,"[1, 2, 4, 2, 1, 4]","[2, 3, 3, 4, 3, 8]",3,4,-1,1
454,ua60hkvff,40,48,1,0.627399999976158,experiment_FR,-5,43,4.6,0.4,19,24,5,0,"[3, 6, 1, 6, 1, 2]","[2, 5, 3, 3, 5, 6]",4,4,0,0
455,ua60hkvff,41,48,0,1.00669999998808,experiment_FR,-2,40,4.6,0.4,19,21,2,1,"[3, 2, 1, 6, 4, 3]","[4, 2, 3, 7, 4, 1]",5,5,0,0
456,ua60hkvff,42,48,0,0.567300000011921,experiment_FR,-11,57,4.6,0.4,23,34,11,1,"[3, 3, 3, 5, 6, 3]","[8, 8, 4, 4, 6, 4]",3,3,0,0
457,ua60hkvff,43,48,1,0.699600000023842,experiment_FR,4,56,4.6,0.4,30,26,4,1,"[5, 1, 4, 6, 7, 7]","[4, 4, 6, 7, 2, 3]",5,5,0,0
458,ua60hkvff,44,48,1,0.629800000011921,experiment_FR,9,43,4.6,0.4,26,17,9,1,"[6, 8, 1, 4, 1, 6]","[2, 1, 3, 1, 3, 7]",4,4,0,0
459,ua60hkvff,45,48,1,1.10330000001192,experiment_FR,-1,59,4.6,0.4,29,30,1,0,"[6, 3, 8, 8, 2, 2]","[7, 8, 1, 5, 6, 3]",4,6,-2,2
460,ua60hkvff,46,48,0,1.29189999997616,experiment_FR,8,50,4.6,0.4,29,21,8,0,"[7, 1, 5, 5, 3, 8]","[3, 1, 6, 8, 2, 1]",5,5,0,0
461,ua60hkvff,47,48,1,0.852799999952316,experiment_FR,1,53,4.6,0.4,27,26,1,1,"[8, 7, 2, 7, 1, 2]","[8, 2, 1, 6, 7, 2]",4,5,-1,1
462,ua60hkvff,48,48,0,0.533300000011921,experiment_FR,-10,48,4.6,0.4,19,29,10,1,"[2, 5, 5, 1, 4, 2]","[7, 2, 6, 3, 6, 5]",4,5,-1,1
463,ua60hkvff,49,48,0,0.890700000047684,experiment_FR,-2,38,4.6,0.4,18,20,2,1,"[3, 2, 2, 1, 4, 6]","[1, 8, 2, 6, 1, 2]",5,4,1,1
464,ua60hkvff,50,48,0,0.494699999988079,experiment_FR,-18,38,4.6,0.4,10,28,18,1,"[1, 3, 1, 3, 1, 1]","[8, 7, 1, 6, 5, 1]",2,5,-3,3
465,ua60hkvff,51,48,0,1.05520000004768,experiment_FR,-4,64,4.6,0.4,30,34,4,1,"[2, 1, 7, 5, 7, 8]","[4, 8, 8, 5, 3, 6]",5,5,0,0
466,ua60hkvff,52,48,0,0.884199999988079,experiment_FR,2,64,4.6,0.4,33,31,2,0,"[3, 6, 4, 5, 8, 7]","[8, 4, 4, 8, 6, 1]",6,4,2,2
467,ua60hkvff,53,48,1,0.8325,experiment_FR,4,64,4.6,0.4,34,30,4,1,"[3, 7, 8, 1, 8, 7]","[8, 5, 5, 8, 1, 3]",4,4,0,0
468,ua60hkvff,54,48,0,0.991100000023842,experiment_FR,4,62,4.6,0.4,33,29,4,0,"[5, 6, 7, 3, 7, 5]","[8, 5, 2, 4, 4, 6]",4,5,-1,1
469,ua60hkvff,55,48,0,0.739900000035763,experiment_FR,-6,56,4.6,0.4,25,31,6,1,"[7, 1, 4, 8, 1, 4]","[8, 4, 5, 8, 5, 1]",4,4,0,0
470,ua60hkvff,56,48,1,0.911600000023842,experiment_FR,10,46,4.6,0.4,28,18,10,1,"[8, 8, 2, 2, 3, 5]","[6, 1, 3, 5, 1, 2]",4,5,-1,1
471,ua60hkvff,57,48,1,1.44190000003576,experiment_FR,4,46,4.6,0.4,25,21,4,1,"[1, 7, 5, 2, 2, 8]","[2, 2, 4, 3, 2, 8]",5,4,1,1
472,ua60hkvff,58,48,0,0.566,experiment_FR,-9,65,4.6,0.4,28,37,9,1,"[2, 8, 1, 4, 5, 8]","[8, 5, 7, 7, 3, 7]",5,4,1,1
473,ua60hkvff,59,48,1,0.761799999952316,experiment_FR,10,58,4.6,0.4,34,24,10,1,"[6, 6, 6, 2, 8, 6]","[4, 5, 1, 6, 2, 6]",3,5,-2,2
474,ua60hkvff,60,48,0,0.582700000047684,experiment_FR,-13,55,4.6,0.4,21,34,13,1,"[2, 5, 3, 3, 6, 2]","[4, 6, 4, 8, 4, 8]",4,3,1,1
475,ua60hkvff,61,48,0,0.592399999976158,experiment_FR,-5,55,4.6,0.4,25,30,5,1,"[2, 2, 5, 5, 3, 8]","[5, 8, 3, 2, 4, 8]",4,5,-1,1
476,ua60hkvff,62,48,0,1.33779999995232,experiment_FR,-4,56,4.6,0.4,26,30,4,1,"[7, 3, 5, 3, 2, 6]","[1, 6, 3, 7, 8, 5]",5,6,-1,1
477,ua60hkvff,63,48,0,0.947700000047684,experiment_FR,8,54,4.6,0.4,31,23,8,0,"[3, 4, 7, 6, 7, 4]","[2, 6, 1, 1, 5, 8]",4,5,-1,1
478,ua60hkvff,64,48,1,0.686400000035763,experiment_FR,-3,57,4.6,0.4,27,30,3,0,"[4, 8, 7, 4, 2, 2]","[7, 5, 8, 4, 1, 5]",4,5,-1,1
479,ua60hkvff,65,48,1,1.13560000002384,experiment_FR,4,50,4.6,0.4,27,23,4,1,"[3, 7, 5, 2, 4, 6]","[5, 4, 1, 4, 8, 1]",6,4,2,2
480,ua60hkvff,66,48,0,0.541200000047684,experiment_FR,-5,57,4.6,0.4,26,31,5,1,"[1, 4, 8, 8, 2, 3]","[7, 5, 7, 1, 3, 8]",5,5,0,0
481,ua60hkvff,67,48,1,0.653700000047684,experiment_FR,14,50,4.6,0.4,32,18,14,1,"[6, 1, 8, 4, 7, 6]","[4, 2, 2, 4, 1, 5]",5,4,1,1
482,ua60hkvff,68,48,0,0.452599999964237,experiment_FR,-10,60,4.6,0.4,25,35,10,1,"[7, 2, 3, 3, 7, 3]","[4, 7, 6, 2, 8, 8]",3,5,-2,2
483,ua60hkvff,69,48,0,1.2895,experiment_FR,3,47,4.6,0.4,25,22,3,0,"[8, 3, 3, 4, 2, 5]","[1, 4, 6, 3, 6, 2]",5,5,0,0
484,ua60hkvff,70,48,0,0.463699999988079,experiment_FR,-17,45,4.6,0.4,14,31,17,1,"[1, 1, 5, 3, 3, 1]","[1, 6, 5, 6, 6, 7]",3,4,-1,1
485,ua60hkvff,71,48,0,0.887699999988079,experiment_FR,0,58,4.6,0.4,29,29,0,0,"[8, 6, 7, 3, 4, 1]","[4, 7, 1, 6, 7, 4]",6,4,2,2
486,ua60hkvff,72,48,0,0.98,experiment_FR,-4,60,4.6,0.4,28,32,4,1,"[4, 4, 3, 3, 6, 8]","[5, 8, 2, 5, 6, 6]",4,4,0,0
487,ua60hkvff,73,48,1,0.603899999976158,experiment_FR,0,52,4.6,0.4,26,26,0,0,"[1, 8, 1, 8, 2, 6]","[4, 8, 5, 3, 4, 2]",4,5,-1,1
488,ua60hkvff,74,48,0,0.500300000011921,experiment_FR,-11,57,4.6,0.4,23,34,11,1,"[1, 3, 7, 5, 5, 2]","[7, 8, 5, 1, 6, 7]",5,5,0,0
489,ua60hkvff,75,48,0,0.659800000011921,experiment_FR,-10,54,4.6,0.4,22,32,10,1,"[2, 6, 3, 3, 1, 7]","[2, 6, 3, 8, 5, 8]",5,5,0,0
490,ua60hkvff,76,48,1,1.05389999997616,experiment_FR,1,49,4.6,0.4,25,24,1,1,"[4, 6, 3, 6, 5, 1]","[7, 2, 2, 3, 4, 6]",5,5,0,0
491,ua60hkvff,77,48,0,0.824099999964237,experiment_FR,-10,44,4.6,0.4,17,27,10,1,"[4, 3, 1, 1, 2, 6]","[6, 7, 2, 4, 4, 4]",5,4,1,1
492,ua60hkvff,78,48,1,0.7955,experiment_FR,5,55,4.6,0.4,30,25,5,1,"[6, 8, 6, 1, 3, 6]","[2, 3, 3, 3, 6, 8]",4,4,0,0
493,ua60hkvff,79,48,0,0.567699999988079,experiment_FR,-5,55,4.6,0.4,25,30,5,1,"[7, 6, 2, 1, 5, 4]","[1, 7, 6, 7, 7, 2]",6,4,2,2
494,ua60hkvff,80,48,1,0.585600000023842,experiment_FR,8,52,4.6,0.4,30,22,8,1,"[7, 8, 1, 4, 4, 6]","[4, 1, 7, 5, 2, 3]",5,6,-1,1
495,ua60hkvff,81,48,1,0.618100000023842,experiment_FR,2,62,4.6,0.4,32,30,2,1,"[8, 5, 2, 8, 8, 1]","[7, 4, 3, 8, 5, 3]",4,5,-1,1
496,ua60hkvff,82,48,0,0.464599999964237,experiment_FR,5,43,4.6,0.4,24,19,5,0,"[4, 3, 5, 4, 2, 6]","[5, 6, 1, 4, 2, 1]",5,5,0,0
497,ua60hkvff,83,48,0,0.566800000011921,experiment_FR,-6,44,4.6,0.4,19,25,6,1,"[4, 5, 1, 1, 5, 3]","[7, 6, 2, 5, 4, 1]",4,6,-2,2
498,ua60hkvff,84,48,1,0.644400000035763,experiment_FR,5,41,4.6,0.4,23,18,5,1,"[4, 3, 1, 7, 3, 5]","[7, 1, 3, 1, 2, 4]",5,5,0,0
499,ua60hkvff,85,48,1,0.457699999988079,experiment_FR,4,58,4.6,0.4,31,27,4,1,"[8, 6, 2, 7, 4, 4]","[5, 3, 4, 6, 3, 6]",5,4,1,1
500,ua60hkvff,86,48,1,0.599699999988079,experiment_FR,9,53,4.6,0.4,31,22,9,1,"[7, 5, 8, 8, 1, 2]","[3, 2, 6, 2, 5, 4]",5,5,0,0
501,ua60hkvff,87,48,1,1.22630000001192,experiment_FR,4,42,4.6,0.4,23,19,4,1,"[8, 4, 3, 3, 4, 1]","[8, 2, 1, 5, 1, 2]",4,4,0,0
502,ua60hkvff,88,48,0,0.485699999988079,experiment_FR,3,65,4.6,0.4,34,31,3,0,"[7, 6, 7, 2, 6, 6]","[5, 8, 2, 6, 2, 8]",3,4,-1,1
503,ua60hkvff,89,48,0,0.471199999988079,experiment_FR,-3,65,4.6,0.4,31,34,3,1,"[8, 6, 4, 2, 3, 8]","[1, 2, 8, 8, 7, 8]",5,4,1,1
504,ua60hkvff,90,48,0,0.498799999952316,experiment_FR,-17,61,4.6,0.4,22,39,17,1,"[5, 3, 4, 5, 1, 4]","[5, 7, 8, 3, 8, 8]",4,4,0,0
505,ua60hkvff,91,48,1,0.6315,experiment_FR,11,51,4.6,0.4,31,20,11,1,"[3, 2, 8, 7, 7, 4]","[3, 3, 4, 3, 1, 6]",5,4,1,1
506,ua60hkvff,92,48,0,0.569300000011921,experiment_FR,-5,63,4.6,0.4,29,34,5,1,"[4, 7, 6, 5, 6, 1]","[4, 6, 7, 6, 3, 8]",5,5,0,0
507,ua60hkvff,93,48,1,0.702399999976158,experiment_FR,3,61,4.6,0.4,32,29,3,1,"[1, 8, 8, 3, 7, 5]","[3, 7, 6, 3, 6, 4]",5,4,1,1
508,ua60hkvff,94,48,1,0.481600000023842,experiment_FR,11,59,4.6,0.4,35,24,11,1,"[3, 5, 3, 8, 8, 8]","[5, 8, 5, 2, 3, 1]",3,5,-2,2
509,ua60hkvff,95,48,1,0.540400000035763,experiment_FR,7,65,4.6,0.4,36,29,7,1,"[8, 5, 6, 3, 8, 6]","[7, 3, 3, 3, 5, 8]",4,4,0,0
510,ua60hkvff,96,48,1,0.530399999976158,experiment_FR,-2,38,4.6,0.4,18,20,2,0,"[1, 8, 3, 1, 3, 2]","[4, 2, 3, 4, 2, 5]",4,4,0,0
511,ua60hkvff,97,48,1,0.867699999988079,experiment_FR,8,50,4.6,0.4,29,21,8,1,"[5, 5, 8, 4, 4, 3]","[2, 2, 1, 8, 6, 2]",4,4,0,0
512,ua60hkvff,98,48,1,0.900400000035763,experiment_FR,9,49,4.6,0.4,29,20,9,1,"[6, 1, 2, 8, 7, 5]","[3, 3, 3, 1, 4, 6]",6,4,2,2
513,ua60hkvff,99,48,1,0.5515,experiment_FR,13,49,4.6,0.4,31,18,13,1,"[4, 8, 8, 2, 7, 2]","[1, 1, 8, 3, 4, 1]",4,4,0,0
514,ua60hkvff,100,48,0,1.04759999996424,experiment_FR,-6,44,4.6,0.4,19,25,6,1,"[4, 2, 8, 2, 2, 1]","[3, 5, 1, 1, 7, 8]",4,5,-1,1
515,ua60hkvff,101,48,1,0.519899999976158,experiment_FR,4,66,4.6,0.4,35,31,4,1,"[8, 2, 3, 7, 7, 8]","[7, 8, 1, 8, 4, 3]",4,5,-1,1
516,ua60hkvff,102,48,1,0.998899999976158,experiment_FR,11,51,4.6,0.4,31,20,11,1,"[4, 3, 4, 6, 8, 6]","[2, 4, 1, 8, 4, 1]",4,4,0,0
517,ua60hkvff,103,48,1,0.601600000023842,experiment_FR,4,52,4.6,0.4,28,24,4,1,"[8, 3, 1, 6, 4, 6]","[8, 5, 5, 1, 1, 4]",5,4,1,1
518,ua60hkvff,104,48,1,0.865599999964237,experiment_FR,9,51,4.6,0.4,30,21,9,1,"[5, 6, 7, 3, 3, 6]","[5, 3, 2, 2, 8, 1]",4,5,-1,1
519,ua60hkvff,105,48,1,0.579199999988079,experiment_FR,6,54,4.6,0.4,30,24,6,1,"[3, 5, 7, 7, 1, 7]","[7, 1, 6, 3, 2, 5]",4,6,-2,2
520,ua60hkvff,106,48,0,1.06920000004768,experiment_FR,-4,58,4.6,0.4,27,31,4,1,"[5, 8, 4, 1, 4, 5]","[8, 4, 5, 2, 6, 6]",4,5,-1,1
521,ua60hkvff,107,48,0,0.977800000011921,experiment_FR,1,53,4.6,0.4,27,26,1,0,"[3, 3, 3, 7, 8, 3]","[5, 7, 6, 1, 6, 1]",3,4,-1,1
522,ua60hkvff,108,48,0,1.01090000003576,experiment_FR,6,58,4.6,0.4,32,26,6,0,"[7, 5, 6, 4, 3, 7]","[8, 2, 5, 7, 3, 1]",5,6,-1,1
523,ua60hkvff,109,48,0,1.2135,experiment_FR,-6,46,4.6,0.4,20,26,6,1,"[6, 3, 6, 1, 3, 1]","[1, 4, 6, 6, 8, 1]",3,4,-1,1
524,ua60hkvff,110,48,1,0.472100000023842,experiment_FR,-4,54,4.6,0.4,25,29,4,0,"[5, 8, 3, 1, 2, 6]","[5, 4, 6, 6, 1, 7]",6,5,1,1
525,ua60hkvff,111,48,0,0.602399999976158,experiment_FR,-8,50,4.6,0.4,21,29,8,1,"[1, 3, 3, 7, 4, 3]","[5, 4, 5, 6, 1, 8]",4,5,-1,1
526,ua60hkvff,112,48,0,0.819300000011921,experiment_FR,7,37,4.6,0.4,22,15,7,0,"[3, 1, 2, 3, 6, 7]","[5, 1, 1, 2, 3, 3]",5,4,1,1
527,ua60hkvff,113,48,0,0.464199999988079,experiment_FR,-3,53,4.6,0.4,25,28,3,1,"[3, 7, 4, 3, 4, 4]","[5, 5, 1, 6, 8, 3]",3,5,-2,2
528,ua60hkvff,114,48,0,0.693899999976158,experiment_FR,3,61,4.6,0.4,32,29,3,0,"[4, 6, 1, 8, 5, 8]","[8, 1, 8, 3, 7, 2]",5,5,0,0
529,ua60hkvff,115,48,1,0.603399999976158,experiment_FR,7,55,4.6,0.4,31,24,7,1,"[7, 3, 3, 6, 8, 4]","[2, 3, 4, 4, 8, 3]",5,4,1,1
530,ua60hkvff,116,48,0,0.5545,experiment_FR,-1,55,4.6,0.4,27,28,1,1,"[8, 4, 1, 1, 6, 7]","[2, 2, 5, 3, 8, 8]",5,4,1,1
531,ua60hkvff,117,48,0,1.49839999997616,experiment_FR,0,64,4.6,0.4,32,32,0,0,"[5, 3, 6, 2, 8, 8]","[7, 1, 8, 7, 1, 8]",5,3,2,2
532,ua60hkvff,118,48,0,0.718699999988079,experiment_FR,5,59,4.6,0.4,32,27,5,0,"[4, 7, 8, 2, 3, 8]","[8, 6, 5, 5, 2, 1]",5,5,0,0
533,ua60hkvff,119,48,0,0.820800000011921,experiment_FR,-1,51,4.6,0.4,25,26,1,1,"[5, 2, 4, 7, 4, 3]","[1, 2, 6, 4, 8, 5]",5,6,-1,1
534,ua60hkvff,120,48,1,0.773300000011921,experiment_FR,-3,61,4.6,0.4,29,32,3,0,"[8, 7, 8, 1, 2, 3]","[7, 4, 7, 5, 7, 2]",5,4,1,1
535,ua60hkvff,121,48,0,0.5175,experiment_FR,-4,62,4.6,0.4,29,33,4,1,"[6, 4, 5, 1, 6, 7]","[3, 6, 6, 3, 8, 7]",5,4,1,1
536,ua60hkvff,123,48,1,0.551800000011921,experiment_FR,7,49,4.6,0.4,28,21,7,1,"[8, 2, 1, 4, 8, 5]","[2, 3, 4, 1, 3, 8]",5,5,0,0
537,ua60hkvff,124,48,0,1.10739999997616,experiment_FR,0,54,4.6,0.4,27,27,0,1,"[3, 2, 8, 3, 7, 4]","[8, 4, 1, 4, 3, 7]",5,5,0,0
538,ua60hkvff,125,48,1,0.5585,experiment_FR,5,61,4.6,0.4,33,28,5,1,"[5, 5, 4, 7, 6, 6]","[7, 4, 3, 4, 2, 8]",4,5,-1,1
539,ua60hkvff,126,48,0,0.598600000023842,experiment_FR,-11,59,4.6,0.4,24,35,11,1,"[3, 2, 8, 3, 2, 6]","[7, 6, 2, 8, 7, 5]",4,5,-1,1
540,ua60hkvff,127,48,0,0.578599999964237,experiment_FR,-5,45,4.6,0.4,20,25,5,1,"[2, 1, 5, 1, 5, 6]","[5, 1, 8, 4, 3, 4]",4,5,-1,1
541,ua60hkvff,128,48,0,0.660899999976158,experiment_FR,-11,53,4.6,0.4,21,32,11,1,"[4, 5, 8, 1, 2, 1]","[6, 2, 8, 7, 6, 3]",5,5,0,0
542,ua60hkvff,129,48,0,0.587699999988079,experiment_FR,-1,47,4.6,0.4,23,24,1,1,"[2, 5, 6, 6, 3, 1]","[5, 1, 4, 8, 2, 4]",5,5,0,0
543,ua60hkvff,130,48,1,0.986399999976158,experiment_FR,5,39,4.6,0.4,22,17,5,1,"[4, 5, 2, 1, 8, 2]","[2, 1, 7, 5, 1, 1]",5,4,1,1
544,ua60hkvff,131,48,1,0.595600000023842,experiment_FR,12,60,4.6,0.4,36,24,12,1,"[8, 7, 8, 5, 5, 3]","[3, 8, 3, 1, 8, 1]",4,3,1,1
545,ua60hkvff,132,48,0,0.5825,experiment_FR,-8,46,4.6,0.4,19,27,8,1,"[1, 2, 6, 3, 4, 3]","[4, 5, 7, 7, 2, 2]",5,4,1,1
546,ua60hkvff,133,48,1,0.553100000023842,experiment_FR,3,47,4.6,0.4,25,22,3,1,"[1, 3, 6, 8, 5, 2]","[3, 4, 6, 5, 2, 2]",6,5,1,1
547,ua60hkvff,134,48,0,0.956899999976158,experiment_FR,-13,43,4.6,0.4,15,28,13,1,"[5, 3, 1, 1, 3, 2]","[4, 3, 3, 6, 8, 4]",4,4,0,0
548,ua60hkvff,135,48,0,0.506199999988079,experiment_FR,0,52,4.6,0.4,26,26,0,1,"[5, 2, 8, 4, 2, 5]","[2, 1, 8, 6, 4, 5]",4,6,-2,2
549,ua60hkvff,136,48,1,0.546299999952316,experiment_FR,2,54,4.6,0.4,28,26,2,1,"[1, 4, 6, 2, 7, 8]","[6, 3, 8, 5, 1, 3]",6,5,1,1
550,ua60hkvff,137,48,0,0.677399999976158,experiment_FR,-7,37,4.6,0.4,15,22,7,1,"[1, 3, 2, 7, 1, 1]","[1, 2, 8, 1, 4, 6]",4,5,-1,1
551,ua60hkvff,138,48,1,0.757399999976158,experiment_FR,3,43,4.6,0.4,23,20,3,1,"[8, 1, 1, 2, 7, 4]","[2, 6, 4, 2, 2, 4]",5,3,2,2
552,ua60hkvff,139,48,0,1.10759999996424,experiment_FR,1,53,4.6,0.4,27,26,1,0,"[1, 6, 4, 8, 2, 6]","[8, 3, 7, 3, 3, 2]",5,4,1,1
553,ua60hkvff,140,48,0,0.592300000011921,experiment_FR,-8,52,4.6,0.4,22,30,8,1,"[4, 1, 4, 6, 6, 1]","[8, 4, 3, 4, 8, 3]",3,3,0,0
554,ua60hkvff,141,48,0,1.13089999997616,experiment_FR,-6,58,4.6,0.4,26,32,6,1,"[1, 3, 8, 6, 2, 6]","[5, 7, 6, 8, 4, 2]",5,6,-1,1
555,ua60hkvff,142,48,1,1.0495,experiment_FR,-6,64,4.6,0.4,29,35,6,0,"[8, 1, 7, 2, 8, 3]","[4, 4, 8, 5, 7, 7]",5,4,1,1
556,ua60hkvff,143,48,0,0.916699999988079,experiment_FR,-1,59,4.6,0.4,29,30,1,1,"[5, 2, 5, 7, 2, 8]","[3, 3, 4, 8, 4, 8]",4,3,1,1
557,ua60hkvff,144,48,0,0.474199999988079,experiment_FR,-13,57,4.6,0.4,22,35,13,1,"[1, 7, 7, 5, 1, 1]","[8, 3, 2, 6, 8, 8]",3,4,-1,1
558,ua60hkvff,145,48,0,0.604400000035763,experiment_FR,1,57,4.6,0.4,29,28,1,0,"[4, 4, 4, 8, 5, 4]","[7, 3, 8, 7, 2, 1]",3,5,-2,2
559,ua60hkvff,146,48,0,0.7705,experiment_FR,4,54,4.6,0.4,29,25,4,0,"[6, 4, 5, 5, 6, 3]","[4, 7, 3, 2, 7, 2]",4,4,0,0
560,ua60hkvff,147,48,1,0.995199999988079,experiment_FR,7,43,4.6,0.4,25,18,7,1,"[7, 5, 2, 5, 5, 1]","[1, 2, 2, 7, 1, 5]",4,4,0,0
561,ua60hkvff,148,48,1,0.582300000011921,experiment_FR,6,60,4.6,0.4,33,27,6,1,"[4, 6, 2, 8, 8, 5]","[6, 5, 2, 7, 2, 5]",5,4,1,1
562,ua60hkvff,149,48,1,0.545100000023842,experiment_FR,6,48,4.6,0.4,27,21,6,1,"[3, 2, 5, 7, 8, 2]","[1, 6, 2, 4, 7, 1]",5,5,0,0
563,ua60hkvff,150,48,0,0.709300000011921,experiment_FR,-2,60,4.6,0.4,29,31,2,1,"[6, 5, 8, 4, 3, 3]","[7, 3, 4, 3, 6, 8]",5,5,0,0
564,o2ql6etsj,1,38,0,0.812400000035763,experiment_VB,-9,49,2.6,0.8,20,29,9,1,"[6, 1, 3, 3, 3, 4]","[7, 2, 6, 8, 5, 1]",4,6,-2,2
565,o2ql6etsj,2,38,1,0.727599999964237,experiment_VB,17,61,2.6,0.8,39,22,17,1,"[3, 8, 5, 8, 8, 7]","[3, 4, 1, 5, 4, 5]",4,4,0,0
566,o2ql6etsj,3,38,0,2.47760000002384,experiment_VB,-4,58,2.6,0.8,27,31,4,1,"[5, 5, 1, 4, 8, 4]","[4, 6, 6, 8, 5, 2]",4,5,-1,1
567,o2ql6etsj,4,38,1,2.04519999998808,experiment_VB,5,43,2.6,0.8,24,19,5,1,"[5, 2, 1, 4, 4, 8]","[2, 1, 4, 7, 4, 1]",5,4,1,1
568,o2ql6etsj,5,38,0,1.81060000002384,experiment_VB,1,49,2.6,0.8,25,24,1,0,"[5, 2, 7, 4, 1, 6]","[5, 4, 2, 7, 1, 5]",6,5,1,1
569,o2ql6etsj,6,38,0,0.798799999952316,experiment_VB,-14,44,2.6,0.8,15,29,14,1,"[1, 2, 6, 3, 2, 1]","[3, 6, 7, 7, 4, 2]",4,5,-1,1
570,o2ql6etsj,7,38,1,0.860399999976158,experiment_VB,11,57,2.6,0.8,34,23,11,1,"[8, 8, 4, 6, 4, 4]","[5, 6, 3, 3, 3, 3]",3,3,0,0
571,o2ql6etsj,8,38,0,0.591600000023842,experiment_VB,-17,45,2.6,0.8,14,31,17,1,"[3, 1, 1, 3, 5, 1]","[6, 1, 6, 7, 6, 5]",3,4,-1,1
572,o2ql6etsj,9,38,0,1.51880000001192,experiment_VB,-8,54,2.6,0.8,23,31,8,1,"[1, 8, 1, 5, 1, 7]","[5, 8, 5, 8, 1, 4]",4,4,0,0
573,o2ql6etsj,10,38,0,1.02109999996424,experiment_VB,-6,60,2.6,0.8,27,33,6,1,"[8, 1, 1, 6, 8, 3]","[8, 6, 3, 7, 1, 8]",4,5,-1,1
574,o2ql6etsj,11,38,1,3.48080000001192,experiment_VB,5,57,2.6,0.8,31,26,5,1,"[7, 3, 7, 5, 1, 8]","[4, 1, 8, 8, 2, 3]",5,5,0,0
575,o2ql6etsj,12,38,1,2.18730000001192,experiment_VB,5,43,2.6,0.8,24,19,5,1,"[2, 6, 5, 3, 3, 5]","[6, 6, 2, 3, 1, 1]",4,4,0,0
576,o2ql6etsj,13,38,1,1.75170000004768,experiment_VB,6,58,2.6,0.8,32,26,6,1,"[6, 5, 4, 7, 3, 7]","[8, 7, 3, 2, 5, 1]",5,6,-1,1
577,o2ql6etsj,14,38,0,1.75110000002384,experiment_VB,-3,47,2.6,0.8,22,25,3,1,"[6, 3, 4, 2, 1, 6]","[3, 5, 3, 2, 4, 8]",5,5,0,0
578,o2ql6etsj,15,38,0,1.28489999997616,experiment_VB,-3,27,2.6,0.8,12,15,3,1,"[1, 2, 2, 2, 1, 4]","[2, 2, 1, 2, 2, 6]",3,3,0,0
579,o2ql6etsj,16,38,0,0.945799999952316,experiment_VB,-6,44,2.6,0.8,19,25,6,1,"[8, 4, 1, 2, 2, 2]","[1, 8, 7, 5, 3, 1]",4,5,-1,1
580,o2ql6etsj,17,38,0,3.12880000001192,experiment_VB,-5,55,2.6,0.8,25,30,5,1,"[6, 2, 4, 1, 7, 5]","[6, 1, 7, 2, 7, 7]",6,4,2,2
581,o2ql6etsj,18,38,0,1.3385,experiment_VB,-8,50,2.6,0.8,21,29,8,1,"[3, 1, 8, 1, 6, 2]","[5, 8, 7, 5, 3, 1]",5,5,0,0
582,o2ql6etsj,19,38,1,0.971699999988079,experiment_VB,4,54,2.6,0.8,29,25,4,1,"[4, 5, 3, 6, 6, 5]","[7, 7, 3, 4, 2, 2]",4,4,0,0
583,o2ql6etsj,20,38,1,2.642,experiment_VB,0,64,2.6,0.8,32,32,0,0,"[8, 7, 8, 1, 1, 7]","[8, 3, 2, 6, 8, 5]",3,5,-2,2
584,o2ql6etsj,21,38,0,1.11410000002384,experiment_VB,-4,58,2.6,0.8,27,31,4,1,"[5, 4, 6, 3, 6, 3]","[2, 4, 4, 6, 7, 8]",4,5,-1,1
585,o2ql6etsj,22,38,0,1.20080000001192,experiment_VB,-6,44,2.6,0.8,19,25,6,1,"[2, 8, 3, 4, 1, 1]","[1, 7, 2, 7, 7, 1]",5,3,2,2
586,o2ql6etsj,23,38,1,0.879299999952316,experiment_VB,12,60,2.6,0.8,36,24,12,1,"[5, 8, 7, 8, 5, 3]","[8, 1, 3, 1, 3, 8]",4,3,1,1
587,o2ql6etsj,24,38,1,1.17430000001192,experiment_VB,9,63,2.6,0.8,36,27,9,1,"[7, 2, 6, 8, 8, 5]","[6, 8, 2, 2, 2, 7]",5,4,1,1
588,o2ql6etsj,25,38,0,3.107,experiment_VB,-5,63,2.6,0.8,29,34,5,1,"[6, 7, 4, 5, 6, 1]","[6, 7, 4, 6, 8, 3]",5,5,0,0
589,o2ql6etsj,26,38,1,1.804,experiment_VB,5,39,2.6,0.8,22,17,5,1,"[2, 5, 4, 1, 8, 2]","[1, 2, 1, 7, 5, 1]",5,4,1,1
590,o2ql6etsj,28,38,0,1.18109999996424,experiment_VB,-2,62,2.6,0.8,30,32,2,1,"[3, 4, 3, 7, 8, 5]","[8, 5, 2, 1, 8, 8]",5,4,1,1
591,o2ql6etsj,29,38,0,0.881399999976158,experiment_VB,-9,51,2.6,0.8,21,30,9,1,"[1, 8, 2, 3, 5, 2]","[3, 3, 5, 6, 7, 6]",5,4,1,1
592,o2ql6etsj,32,38,0,1.21079999995232,experiment_VB,-9,65,2.6,0.8,28,37,9,1,"[1, 4, 8, 8, 5, 2]","[7, 3, 7, 7, 8, 5]",5,4,1,1
593,o2ql6etsj,33,38,1,1.64069999998808,experiment_VB,2,64,2.6,0.8,33,31,2,1,"[3, 6, 5, 4, 8, 7]","[4, 1, 8, 4, 8, 6]",6,4,2,2
594,o2ql6etsj,34,38,1,1.69,experiment_VB,11,57,2.6,0.8,34,23,11,1,"[7, 7, 6, 1, 8, 5]","[3, 5, 5, 2, 1, 7]",5,5,0,0
595,o2ql6etsj,35,38,1,2.70669999998808,experiment_VB,4,64,2.6,0.8,34,30,4,1,"[8, 7, 7, 8, 3, 1]","[8, 5, 8, 3, 5, 1]",4,4,0,0
596,o2ql6etsj,36,38,0,1.77510000002384,experiment_VB,-10,60,2.6,0.8,25,35,10,1,"[3, 2, 7, 3, 7, 3]","[4, 8, 6, 8, 2, 7]",3,5,-2,2
597,o2ql6etsj,37,38,1,1.88180000001192,experiment_VB,6,44,2.6,0.8,25,19,6,1,"[7, 5, 6, 2, 1, 4]","[4, 5, 1, 3, 1, 5]",6,4,2,2
598,o2ql6etsj,38,38,1,1.27930000001192,experiment_VB,4,56,2.6,0.8,30,26,4,1,"[7, 2, 8, 7, 2, 4]","[8, 6, 2, 3, 6, 1]",4,5,-1,1
599,o2ql6etsj,39,38,1,1.57189999997616,experiment_VB,6,64,2.6,0.8,35,29,6,1,"[4, 5, 4, 7, 8, 7]","[8, 1, 2, 8, 7, 3]",4,5,-1,1
600,o2ql6etsj,41,38,1,1.258,experiment_VB,10,46,2.6,0.8,28,18,10,1,"[2, 5, 2, 3, 8, 8]","[3, 1, 5, 2, 1, 6]",4,5,-1,1
601,o2ql6etsj,43,38,1,3.08130000001192,experiment_VB,7,65,2.6,0.8,36,29,7,1,"[6, 3, 6, 8, 5, 8]","[5, 3, 7, 3, 8, 3]",4,4,0,0
602,o2ql6etsj,44,38,1,2.057,experiment_VB,4,48,2.6,0.8,26,22,4,1,"[6, 4, 5, 5, 4, 2]","[5, 1, 8, 1, 1, 6]",4,4,0,0
603,o2ql6etsj,45,38,0,1.24740000003576,experiment_VB,-4,54,2.6,0.8,25,29,4,1,"[6, 2, 1, 3, 5, 8]","[7, 6, 5, 6, 1, 4]",6,5,1,1
604,o2ql6etsj,46,38,0,1.26510000002384,experiment_VB,-9,53,2.6,0.8,22,31,9,1,"[7, 3, 3, 2, 3, 4]","[2, 4, 7, 5, 5, 8]",4,5,-1,1
605,o2ql6etsj,48,38,1,2.33769999998808,experiment_VB,11,51,2.6,0.8,31,20,11,1,"[3, 4, 7, 2, 7, 8]","[3, 3, 3, 6, 4, 1]",5,4,1,1
606,o2ql6etsj,49,38,1,1.213,experiment_VB,8,46,2.6,0.8,27,19,8,1,"[7, 2, 2, 5, 7, 4]","[4, 2, 3, 6, 3, 1]",4,5,-1,1
607,o2ql6etsj,50,38,1,2.20739999997616,experiment_VB,7,43,2.6,0.8,25,18,7,1,"[7, 1, 5, 2, 5, 5]","[7, 2, 5, 1, 1, 2]",4,4,0,0
608,o2ql6etsj,51,38,1,3.46119999998808,experiment_VB,3,61,2.6,0.8,32,29,3,1,"[6, 8, 1, 8, 5, 4]","[1, 7, 8, 8, 3, 2]",5,5,0,0
609,o2ql6etsj,52,38,1,0.758199999988079,experiment_VB,13,59,2.6,0.8,36,23,13,1,"[2, 8, 7, 8, 4, 7]","[2, 5, 3, 4, 7, 2]",4,5,-1,1
610,o2ql6etsj,53,38,0,0.6425,experiment_VB,-14,42,2.6,0.8,14,28,14,1,"[3, 1, 2, 5, 2, 1]","[7, 1, 7, 4, 7, 2]",4,4,0,0
611,o2ql6etsj,54,38,1,1.011,experiment_VB,4,60,2.6,0.8,32,28,4,1,"[6, 2, 8, 5, 6, 5]","[4, 8, 3, 3, 4, 6]",4,4,0,0
612,o2ql6etsj,56,38,0,3.776,experiment_VB,-2,38,2.6,0.8,18,20,2,1,"[2, 4, 1, 3, 2, 6]","[1, 2, 2, 1, 6, 8]",5,4,1,1
613,o2ql6etsj,57,38,0,0.904,experiment_VB,-9,43,2.6,0.8,17,26,9,1,"[3, 7, 1, 3, 1, 2]","[4, 8, 1, 6, 6, 1]",4,4,0,0
614,o2ql6etsj,58,38,1,1.00080000001192,experiment_VB,5,53,2.6,0.8,29,24,5,1,"[3, 4, 8, 5, 2, 7]","[5, 3, 2, 3, 7, 4]",6,5,1,1
615,o2ql6etsj,59,38,0,0.858699999988079,experiment_VB,-4,62,2.6,0.8,29,33,4,1,"[6, 5, 2, 4, 4, 8]","[7, 6, 7, 5, 5, 3]",5,4,1,1
616,o2ql6etsj,60,38,1,1.92189999997616,experiment_VB,5,55,2.6,0.8,30,25,5,1,"[2, 5, 8, 3, 8, 4]","[2, 5, 2, 8, 5, 3]",5,4,1,1
617,o2ql6etsj,61,38,1,1.40179999995232,experiment_VB,5,61,2.6,0.8,33,28,5,1,"[5, 6, 7, 5, 6, 4]","[4, 3, 2, 8, 4, 7]",4,5,-1,1
618,o2ql6etsj,62,38,0,1.11510000002384,experiment_VB,-3,61,2.6,0.8,29,32,3,1,"[7, 6, 3, 4, 3, 6]","[8, 8, 7, 1, 3, 5]",4,5,-1,1
619,o2ql6etsj,63,38,0,1.28619999998808,experiment_VB,-5,41,2.6,0.8,18,23,5,1,"[3, 1, 7, 1, 1, 5]","[6, 7, 1, 4, 4, 1]",4,4,0,0
620,o2ql6etsj,64,38,0,0.710699999988079,experiment_VB,-13,63,2.6,0.8,25,38,13,1,"[3, 7, 7, 3, 3, 2]","[6, 8, 3, 7, 8, 6]",3,4,-1,1
621,o2ql6etsj,65,38,0,0.975600000023842,experiment_VB,-6,58,2.6,0.8,26,32,6,1,"[2, 1, 6, 3, 6, 8]","[4, 5, 6, 7, 8, 2]",5,6,-1,1
622,o2ql6etsj,66,38,1,0.925199999988079,experiment_VB,7,37,2.6,0.8,22,15,7,1,"[1, 3, 6, 2, 3, 7]","[3, 2, 3, 1, 1, 5]",5,4,1,1
623,o2ql6etsj,67,38,1,1.08619999998808,experiment_VB,2,54,2.6,0.8,28,26,2,1,"[6, 8, 2, 7, 1, 4]","[6, 3, 3, 1, 8, 5]",6,5,1,1
624,o2ql6etsj,68,38,1,1.46969999998808,experiment_VB,4,66,2.6,0.8,35,31,4,1,"[8, 7, 2, 7, 3, 8]","[8, 3, 1, 4, 8, 7]",4,5,-1,1
625,o2ql6etsj,69,38,0,1.13689999997616,experiment_VB,1,37,2.6,0.8,19,18,1,0,"[2, 1, 4, 4, 1, 7]","[2, 6, 1, 1, 7, 1]",4,4,0,0
626,o2ql6etsj,70,38,1,1.6515,experiment_VB,11,51,2.6,0.8,31,20,11,1,"[6, 4, 6, 3, 4, 8]","[1, 8, 1, 4, 4, 2]",4,4,0,0
627,o2ql6etsj,71,38,0,0.703300000011921,experiment_VB,-3,65,2.6,0.8,31,34,3,1,"[8, 2, 8, 4, 3, 6]","[2, 8, 8, 7, 8, 1]",5,4,1,1
628,o2ql6etsj,72,38,1,1.19839999997616,experiment_VB,1,59,2.6,0.8,30,29,1,1,"[3, 5, 1, 7, 6, 8]","[3, 2, 6, 8, 8, 2]",6,4,2,2
629,o2ql6etsj,73,38,0,0.792899999976158,experiment_VB,-11,53,2.6,0.8,21,32,11,1,"[4, 1, 1, 8, 2, 5]","[2, 3, 7, 6, 8, 6]",5,5,0,0
630,o2ql6etsj,74,38,1,1.90919999998808,experiment_VB,1,53,2.6,0.8,27,26,1,1,"[6, 1, 4, 8, 2, 6]","[3, 3, 2, 8, 3, 7]",5,4,1,1
631,o2ql6etsj,75,38,1,0.769800000011921,experiment_VB,11,59,2.6,0.8,35,24,11,1,"[8, 5, 8, 8, 3, 3]","[5, 8, 2, 1, 3, 5]",3,5,-2,2
632,o2ql6etsj,76,38,0,1.72,experiment_VB,-7,37,2.6,0.8,15,22,7,1,"[7, 1, 3, 1, 1, 2]","[6, 2, 1, 4, 1, 8]",4,5,-1,1
633,o2ql6etsj,77,38,1,0.68,experiment_VB,0,52,2.6,0.8,26,26,0,0,"[6, 1, 2, 8, 8, 1]","[8, 4, 3, 4, 2, 5]",4,5,-1,1
634,o2ql6etsj,78,38,1,0.812800000011921,experiment_VB,9,37,2.6,0.8,23,14,9,1,"[8, 1, 1, 8, 4, 1]","[1, 1, 2, 1, 6, 3]",3,4,-1,1
635,o2ql6etsj,79,38,1,1.93689999997616,experiment_VB,3,53,2.6,0.8,28,25,3,1,"[4, 8, 2, 2, 7, 5]","[6, 3, 2, 2, 6, 6]",5,3,2,2
636,o2ql6etsj,80,38,0,1.57009999996424,experiment_VB,-1,55,2.6,0.8,27,28,1,1,"[7, 1, 8, 1, 4, 6]","[8, 3, 2, 8, 2, 5]",5,4,1,1
637,o2ql6etsj,81,38,0,0.950199999988079,experiment_VB,-13,47,2.6,0.8,17,30,13,1,"[4, 1, 5, 1, 2, 4]","[7, 2, 6, 4, 5, 6]",4,5,-1,1
638,o2ql6etsj,82,38,1,0.736600000023842,experiment_VB,13,55,2.6,0.8,34,21,13,1,"[4, 6, 8, 8, 4, 4]","[3, 5, 3, 6, 2, 2]",3,4,-1,1
639,o2ql6etsj,83,38,0,0.714100000023842,experiment_VB,2,38,2.6,0.8,20,18,2,0,"[4, 5, 4, 3, 2, 2]","[3, 1, 8, 3, 1, 2]",4,4,0,0
640,o2ql6etsj,84,38,0,3.65830000001192,experiment_VB,-6,54,2.6,0.8,24,30,6,1,"[3, 2, 7, 1, 6, 5]","[4, 8, 4, 4, 6, 4]",6,3,3,3
641,o2ql6etsj,85,38,1,0.868899999976158,experiment_VB,3,43,2.6,0.8,23,20,3,1,"[4, 2, 1, 1, 8, 7]","[2, 4, 2, 4, 6, 2]",5,3,2,2
642,o2ql6etsj,86,38,1,0.990100000023842,experiment_VB,11,59,2.6,0.8,35,24,11,1,"[8, 5, 3, 3, 8, 8]","[3, 3, 5, 2, 7, 4]",3,5,-2,2
643,o2ql6etsj,87,38,0,0.834799999952316,experiment_VB,-4,62,2.6,0.8,29,33,4,1,"[6, 7, 1, 5, 4, 6]","[7, 6, 3, 8, 6, 3]",5,4,1,1
644,o2ql6etsj,88,38,1,2.14160000002384,experiment_VB,3,47,2.6,0.8,25,22,3,1,"[5, 8, 3, 1, 6, 2]","[4, 3, 5, 2, 6, 2]",6,5,1,1
645,o2ql6etsj,89,38,0,0.699100000023842,experiment_VB,-10,58,2.6,0.8,24,34,10,1,"[4, 5, 2, 1, 6, 6]","[8, 6, 6, 2, 6, 6]",5,3,2,2
646,o2ql6etsj,90,38,0,1.4465,experiment_VB,-5,59,2.6,0.8,27,32,5,1,"[2, 8, 7, 3, 3, 4]","[8, 2, 3, 3, 8, 8]",5,3,2,2
647,o2ql6etsj,91,38,0,1.08980000001192,experiment_VB,-6,46,2.6,0.8,20,26,6,1,"[3, 3, 1, 6, 1, 6]","[1, 8, 4, 6, 1, 6]",3,4,-1,1
648,o2ql6etsj,92,38,0,1.21190000003576,experiment_VB,-4,56,2.6,0.8,26,30,4,1,"[4, 6, 2, 4, 3, 7]","[6, 5, 7, 4, 1, 7]",5,5,0,0
649,o2ql6etsj,93,38,0,0.790199999988079,experiment_VB,-5,55,2.6,0.8,25,30,5,1,"[3, 6, 2, 8, 3, 3]","[6, 6, 8, 1, 6, 3]",4,4,0,0
650,o2ql6etsj,94,38,1,0.556400000035763,experiment_VB,17,57,2.6,0.8,37,20,17,1,"[7, 7, 1, 7, 7, 8]","[3, 8, 1, 3, 2, 3]",3,4,-1,1
651,o2ql6etsj,95,38,1,1.75769999998808,experiment_VB,-5,45,2.6,0.8,20,25,5,0,"[1, 1, 5, 6, 5, 2]","[1, 4, 3, 4, 8, 5]",4,5,-1,1
652,o2ql6etsj,96,38,1,0.790800000011921,experiment_VB,3,53,2.6,0.8,28,25,3,1,"[6, 5, 5, 1, 8, 3]","[3, 3, 4, 4, 7, 4]",5,3,2,2
653,o2ql6etsj,97,38,0,0.593300000011921,experiment_VB,-14,50,2.6,0.8,18,32,14,1,"[5, 4, 2, 2, 1, 4]","[6, 7, 6, 1, 4, 8]",4,5,-1,1
654,o2ql6etsj,98,38,0,1.39059999996424,experiment_VB,-5,41,2.6,0.8,18,23,5,1,"[7, 3, 1, 4, 2, 1]","[3, 5, 7, 1, 3, 4]",5,5,0,0
655,o2ql6etsj,99,38,1,3.4895,experiment_VB,6,48,2.6,0.8,27,21,6,1,"[8, 2, 3, 5, 2, 7]","[2, 1, 1, 4, 7, 6]",5,5,0,0
656,o2ql6etsj,100,38,0,3.00769999998808,experiment_VB,-4,42,2.6,0.8,19,23,4,1,"[5, 1, 2, 8, 1, 2]","[8, 3, 4, 3, 4, 1]",4,4,0,0
657,o2ql6etsj,101,38,1,2.2685,experiment_VB,10,44,2.6,0.8,27,17,10,1,"[7, 2, 4, 4, 4, 6]","[2, 3, 6, 4, 1, 1]",4,5,-1,1
658,o2ql6etsj,102,38,0,0.9125,experiment_VB,-8,54,2.6,0.8,23,31,8,1,"[1, 2, 5, 8, 6, 1]","[4, 7, 7, 4, 3, 6]",5,4,1,1
659,o2ql6etsj,103,38,1,0.627900000035763,experiment_VB,11,57,2.6,0.8,34,23,11,1,"[3, 7, 8, 7, 2, 7]","[1, 2, 7, 7, 4, 2]",4,4,0,0
660,o2ql6etsj,104,38,0,1.03240000003576,experiment_VB,0,48,2.6,0.8,24,24,0,1,"[3, 3, 2, 4, 4, 8]","[6, 1, 4, 2, 8, 3]",4,6,-2,2
661,o2ql6etsj,105,38,0,0.824100000023842,experiment_VB,-9,55,2.6,0.8,23,32,9,1,"[8, 1, 2, 6, 4, 2]","[1, 2, 6, 8, 8, 7]",5,5,0,0
662,o2ql6etsj,106,38,0,0.674800000011921,experiment_VB,-11,59,2.6,0.8,24,35,11,1,"[6, 2, 3, 2, 3, 8]","[6, 7, 7, 2, 5, 8]",4,5,-1,1
663,o2ql6etsj,108,38,0,0.711699999988079,experiment_VB,-6,54,2.6,0.8,24,30,6,1,"[6, 2, 3, 5, 7, 1]","[7, 7, 7, 5, 1, 3]",6,4,2,2
664,o2ql6etsj,109,38,0,1.053,experiment_VB,-7,55,2.6,0.8,24,31,7,1,"[3, 4, 2, 3, 4, 8]","[4, 6, 3, 8, 3, 7]",4,5,-1,1
665,o2ql6etsj,110,38,1,3.75860000002384,experiment_VB,4,64,2.6,0.8,34,30,4,1,"[3, 8, 7, 4, 5, 7]","[5, 5, 4, 1, 8, 7]",5,5,0,0
666,o2ql6etsj,111,38,0,0.777900000035763,experiment_VB,1,53,2.6,0.8,27,26,1,0,"[3, 3, 3, 3, 7, 8]","[5, 7, 6, 1, 1, 6]",3,4,-1,1
667,o2ql6etsj,112,38,1,0.9525,experiment_VB,18,46,2.6,0.8,32,14,18,1,"[8, 3, 2, 7, 8, 4]","[4, 3, 3, 1, 1, 2]",5,4,1,1
668,o2ql6etsj,113,38,1,2.642,experiment_VB,6,50,2.6,0.8,28,22,6,1,"[4, 4, 3, 5, 5, 7]","[3, 3, 2, 7, 3, 4]",4,4,0,0
669,o2ql6etsj,114,38,0,1.184,experiment_VB,-5,55,2.6,0.8,25,30,5,1,"[4, 6, 3, 2, 2, 8]","[4, 1, 6, 6, 5, 8]",5,5,0,0
670,o2ql6etsj,115,38,0,0.8725,experiment_VB,-7,49,2.6,0.8,21,28,7,1,"[8, 3, 2, 4, 1, 3]","[2, 4, 8, 5, 1, 8]",5,5,0,0
671,o2ql6etsj,116,38,0,0.740899999976158,experiment_VB,-8,50,2.6,0.8,21,29,8,1,"[8, 4, 1, 2, 3, 3]","[8, 5, 3, 7, 5, 1]",5,5,0,0
672,o2ql6etsj,117,38,1,2.31689999997616,experiment_VB,5,43,2.6,0.8,24,19,5,1,"[2, 4, 3, 6, 5, 4]","[1, 6, 5, 4, 2, 1]",5,5,0,0
673,o2ql6etsj,118,38,1,0.749,experiment_VB,18,38,2.6,0.8,28,10,18,1,"[1, 1, 6, 7, 8, 5]","[1, 1, 1, 3, 3, 1]",5,2,3,3
674,o2ql6etsj,119,38,1,2.27380000001192,experiment_VB,-4,64,2.6,0.8,30,34,4,0,"[2, 8, 7, 7, 5, 1]","[6, 8, 8, 3, 4, 5]",5,5,0,0
675,o2ql6etsj,120,38,1,2.53739999997616,experiment_VB,6,56,2.6,0.8,31,25,6,1,"[4, 5, 8, 5, 1, 8]","[1, 4, 8, 4, 7, 1]",4,4,0,0
676,o2ql6etsj,121,38,1,2.37980000001192,experiment_VB,1,73,2.6,0.8,37,36,1,1,"[3, 8, 6, 5, 8, 7]","[4, 7, 7, 2, 8, 8]",5,4,1,1
677,o2ql6etsj,122,38,1,1.5715,experiment_VB,3,57,2.6,0.8,30,27,3,1,"[1, 5, 7, 8, 4, 5]","[4, 4, 8, 7, 2, 2]",5,4,1,1
678,o2ql6etsj,123,38,0,3.12060000002384,experiment_VB,-10,48,2.6,0.8,19,29,10,1,"[2, 5, 4, 2, 5, 1]","[6, 7, 3, 6, 5, 2]",4,5,-1,1
679,o2ql6etsj,124,38,0,1.27759999996424,experiment_VB,-8,50,2.6,0.8,21,29,8,1,"[4, 3, 3, 1, 7, 3]","[8, 5, 5, 4, 6, 1]",4,5,-1,1
680,o2ql6etsj,125,38,0,1.00940000003576,experiment_VB,-8,50,2.6,0.8,21,29,8,1,"[1, 2, 6, 8, 2, 2]","[4, 8, 4, 5, 5, 3]",4,4,0,0
681,o2ql6etsj,126,38,1,0.943900000035763,experiment_VB,3,65,2.6,0.8,34,31,3,1,"[7, 6, 2, 7, 6, 6]","[8, 2, 6, 5, 8, 2]",3,4,-1,1
682,o2ql6etsj,127,38,0,3.08630000001192,experiment_VB,-8,52,2.6,0.8,22,30,8,1,"[6, 4, 4, 1, 1, 6]","[3, 3, 8, 4, 4, 8]",3,3,0,0
683,o2ql6etsj,128,38,1,0.767100000023842,experiment_VB,26,62,2.6,0.8,44,18,26,1,"[8, 8, 7, 7, 7, 7]","[6, 1, 3, 1, 2, 5]",2,5,-3,3
684,o2ql6etsj,129,38,0,0.613300000011921,experiment_VB,-8,52,2.6,0.8,22,30,8,1,"[5, 1, 2, 4, 7, 3]","[6, 4, 1, 8, 7, 4]",6,5,1,1
685,o2ql6etsj,130,38,0,0.572900000035763,experiment_VB,-9,53,2.6,0.8,22,31,9,1,"[3, 2, 6, 4, 5, 2]","[5, 7, 2, 8, 1, 8]",5,5,0,0
686,o2ql6etsj,131,38,1,1.1815,experiment_VB,6,54,2.6,0.8,30,24,6,1,"[5, 1, 2, 8, 7, 7]","[1, 7, 4, 7, 3, 2]",5,5,0,0
687,o2ql6etsj,132,38,0,1.088,experiment_VB,2,40,2.6,0.8,21,19,2,0,"[4, 3, 2, 4, 7, 1]","[6, 4, 2, 3, 1, 3]",5,5,0,0
688,o2ql6etsj,133,38,1,1.30990000003576,experiment_VB,9,37,2.6,0.8,23,14,9,1,"[3, 3, 2, 3, 4, 8]","[1, 1, 2, 2, 4, 4]",4,3,1,1
689,o2ql6etsj,134,38,1,1.08380000001192,experiment_VB,4,56,2.6,0.8,30,26,4,1,"[1, 5, 7, 3, 8, 6]","[3, 6, 7, 3, 5, 2]",6,5,1,1
690,o2ql6etsj,135,38,1,3.06840000003576,experiment_VB,10,52,2.6,0.8,31,21,10,1,"[8, 4, 5, 2, 5, 7]","[6, 1, 2, 7, 4, 1]",5,5,0,0
691,o2ql6etsj,136,38,0,1.18539999997616,experiment_VB,-4,66,2.6,0.8,31,35,4,1,"[6, 1, 8, 8, 6, 2]","[6, 7, 8, 6, 3, 5]",4,5,-1,1
692,o2ql6etsj,137,38,1,1.33190000003576,experiment_VB,13,57,2.6,0.8,35,22,13,1,"[2, 8, 6, 8, 3, 8]","[7, 1, 5, 1, 1, 7]",4,3,1,1
693,o2ql6etsj,138,38,0,0.906199999988079,experiment_VB,-10,54,2.6,0.8,22,32,10,1,"[7, 1, 2, 6, 3, 3]","[3, 8, 2, 6, 8, 5]",5,5,0,0
694,o2ql6etsj,139,38,1,2.85069999998808,experiment_VB,4,52,2.6,0.8,28,24,4,1,"[6, 3, 8, 1, 4, 6]","[5, 4, 1, 5, 8, 1]",5,4,1,1
695,o2ql6etsj,140,38,1,0.71,experiment_VB,5,59,2.6,0.8,32,27,5,1,"[8, 7, 2, 3, 4, 8]","[8, 6, 5, 2, 1, 5]",5,5,0,0
696,o2ql6etsj,143,38,0,1.41,experiment_VB,-2,60,2.6,0.8,29,31,2,1,"[5, 4, 3, 3, 8, 6]","[6, 7, 3, 3, 4, 8]",5,5,0,0
697,o2ql6etsj,144,38,1,0.718899999976158,experiment_VB,13,49,2.6,0.8,31,18,13,1,"[2, 4, 8, 2, 7, 8]","[3, 8, 1, 1, 4, 1]",4,4,0,0
698,o2ql6etsj,145,38,0,0.815300000011921,experiment_VB,1,57,2.6,0.8,29,28,1,0,"[4, 4, 8, 4, 4, 5]","[8, 7, 3, 2, 1, 7]",3,5,-2,2
699,o2ql6etsj,146,38,0,1.33209999996424,experiment_VB,-6,60,2.6,0.8,27,33,6,1,"[6, 7, 2, 2, 5, 5]","[8, 5, 4, 2, 8, 6]",4,5,-1,1
700,o2ql6etsj,147,38,0,0.772399999976158,experiment_VB,-4,46,2.6,0.8,21,25,4,1,"[2, 2, 4, 3, 2, 8]","[5, 1, 7, 2, 8, 2]",4,5,-1,1
701,o2ql6etsj,148,38,0,1.0465,experiment_VB,-13,43,2.6,0.8,15,28,13,1,"[3, 3, 1, 2, 1, 5]","[3, 3, 8, 4, 4, 6]",4,4,0,0
702,o2ql6etsj,149,38,1,1.14219999998808,experiment_VB,-1,59,2.6,0.8,29,30,1,0,"[5, 2, 2, 8, 7, 5]","[3, 3, 8, 8, 4, 4]",4,3,1,1
703,o2ql6etsj,150,38,1,1.28919999998808,experiment_VB,1,47,2.6,0.8,24,23,1,1,"[1, 4, 4, 5, 2, 8]","[5, 2, 3, 6, 1, 6]",5,5,0,0
704,o2ql6etsj,1,38,0,1.19140000003576,experiment_FR,-11,53,11.6,0.9,21,32,11,1,"[2, 1, 3, 8, 6, 1]","[6, 6, 7, 6, 3, 4]",5,4,1,1
705,o2ql6etsj,2,38,0,3.46859999996424,experiment_FR,-2,56,11.6,0.9,27,29,2,1,"[6, 6, 3, 6, 2, 4]","[7, 6, 5, 2, 6, 3]",4,5,-1,1
706,o2ql6etsj,4,38,0,3.34869999998808,experiment_FR,1,51,11.6,0.9,26,25,1,0,"[2, 6, 6, 6, 2, 4]","[1, 8, 2, 1, 6, 7]",3,5,-2,2
707,o2ql6etsj,5,38,1,1.72139999997616,experiment_FR,3,49,11.6,0.9,26,23,3,1,"[6, 4, 7, 3, 1, 5]","[1, 2, 8, 6, 1, 5]",6,5,1,1
708,o2ql6etsj,6,38,1,1.0115,experiment_FR,7,51,11.6,0.9,29,22,7,1,"[5, 3, 6, 2, 8, 5]","[4, 6, 2, 3, 5, 2]",5,5,0,0
709,o2ql6etsj,7,38,1,1.90519999998808,experiment_FR,5,65,11.6,0.9,35,30,5,1,"[7, 8, 4, 5, 3, 8]","[7, 1, 6, 8, 6, 2]",5,5,0,0
710,o2ql6etsj,8,38,0,0.949899999976158,experiment_FR,-3,63,11.6,0.9,30,33,3,1,"[3, 1, 6, 5, 8, 7]","[5, 7, 4, 8, 3, 6]",6,6,0,0
711,o2ql6etsj,9,38,1,2.88480000001192,experiment_FR,4,62,11.6,0.9,33,29,4,1,"[7, 7, 7, 2, 5, 5]","[7, 7, 4, 5, 4, 2]",3,4,-1,1
712,o2ql6etsj,10,38,0,2.10660000002384,experiment_FR,-5,65,11.6,0.9,30,35,5,1,"[8, 7, 3, 5, 1, 6]","[6, 7, 8, 3, 8, 3]",6,4,2,2
713,o2ql6etsj,11,38,0,2.90130000001192,experiment_FR,-5,45,11.6,0.9,20,25,5,1,"[1, 1, 7, 5, 4, 2]","[3, 8, 6, 2, 3, 3]",5,4,1,1
714,o2ql6etsj,12,38,1,1.13710000002384,experiment_FR,6,52,11.6,0.9,29,23,6,1,"[4, 2, 7, 7, 1, 8]","[4, 1, 6, 8, 3, 1]",5,5,0,0
715,o2ql6etsj,13,38,1,3.20569999998808,experiment_FR,7,43,11.6,0.9,25,18,7,1,"[1, 4, 3, 3, 6, 8]","[2, 3, 4, 2, 5, 2]",5,4,1,1
716,o2ql6etsj,14,38,0,2.20140000003576,experiment_FR,-6,56,11.6,0.9,25,31,6,1,"[2, 1, 6, 8, 4, 4]","[2, 6, 3, 7, 5, 8]",5,6,-1,1
717,o2ql6etsj,15,38,1,2.46810000002384,experiment_FR,8,48,11.6,0.9,28,20,8,1,"[4, 6, 3, 2, 7, 6]","[4, 7, 3, 3, 2, 1]",5,5,0,0
718,o2ql6etsj,16,38,1,1.80619999998808,experiment_FR,7,69,11.6,0.9,38,31,7,1,"[7, 8, 6, 3, 7, 7]","[7, 8, 1, 5, 6, 4]",4,6,-2,2
719,o2ql6etsj,17,38,0,4.31609999996424,experiment_FR,-3,45,11.6,0.9,21,24,3,1,"[2, 8, 3, 5, 1, 2]","[6, 5, 4, 4, 4, 1]",5,4,1,1
720,o2ql6etsj,19,38,1,1.45369999998808,experiment_FR,5,55,11.6,0.9,30,25,5,1,"[2, 4, 5, 6, 7, 6]","[2, 4, 7, 5, 4, 3]",5,5,0,0
721,o2ql6etsj,20,38,1,2.318,experiment_FR,6,34,11.6,0.9,20,14,6,1,"[8, 4, 1, 2, 2, 3]","[1, 1, 3, 2, 4, 3]",5,4,1,1
722,o2ql6etsj,21,38,1,1.65769999998808,experiment_FR,2,54,11.6,0.9,28,26,2,1,"[6, 5, 1, 4, 8, 4]","[3, 7, 6, 3, 2, 5]",5,5,0,0
723,o2ql6etsj,24,38,0,1.35830000001192,experiment_FR,-6,54,11.6,0.9,24,30,6,1,"[7, 3, 4, 2, 2, 6]","[5, 3, 6, 6, 7, 3]",5,4,1,1
724,o2ql6etsj,25,38,0,1.6975,experiment_FR,-9,47,11.6,0.9,19,28,9,1,"[1, 4, 2, 5, 2, 5]","[3, 3, 8, 6, 5, 3]",4,4,0,0
725,o2ql6etsj,26,38,1,4.44280000001192,experiment_FR,4,50,11.6,0.9,27,23,4,1,"[6, 2, 2, 4, 5, 8]","[4, 4, 7, 1, 1, 6]",5,4,1,1
726,o2ql6etsj,27,38,0,1.92460000002384,experiment_FR,-3,55,11.6,0.9,26,29,3,1,"[8, 3, 3, 2, 2, 8]","[8, 4, 1, 7, 4, 5]",3,5,-2,2
727,o2ql6etsj,28,38,1,1.0355,experiment_FR,6,64,11.6,0.9,35,29,6,1,"[7, 4, 8, 6, 6, 4]","[4, 3, 4, 4, 8, 6]",4,4,0,0
728,o2ql6etsj,29,38,1,0.991800000011921,experiment_FR,13,57,11.6,0.9,35,22,13,1,"[7, 4, 7, 8, 7, 2]","[8, 2, 1, 7, 2, 2]",4,4,0,0
729,o2ql6etsj,30,38,0,1.29460000002384,experiment_FR,0,66,11.6,0.9,33,33,0,1,"[8, 1, 8, 6, 5, 5]","[4, 6, 3, 7, 7, 6]",4,4,0,0
730,o2ql6etsj,31,38,1,2.223,experiment_FR,8,56,11.6,0.9,32,24,8,1,"[3, 4, 8, 4, 5, 8]","[6, 1, 2, 7, 2, 6]",4,4,0,0
731,o2ql6etsj,32,38,0,4.49769999998808,experiment_FR,-4,42,11.6,0.9,19,23,4,1,"[1, 3, 2, 3, 7, 3]","[6, 8, 4, 1, 2, 2]",4,5,-1,1
732,o2ql6etsj,34,38,0,1.40939999997616,experiment_FR,-5,67,11.6,0.9,31,36,5,1,"[3, 8, 4, 6, 7, 3]","[8, 8, 7, 5, 6, 2]",5,5,0,0
733,o2ql6etsj,35,38,1,1.481,experiment_FR,3,37,11.6,0.9,20,17,3,1,"[6, 3, 2, 4, 2, 3]","[2, 1, 4, 2, 7, 1]",4,4,0,0
734,o2ql6etsj,36,38,0,0.789599999964237,experiment_FR,-11,53,11.6,0.9,21,32,11,1,"[4, 1, 2, 3, 8, 3]","[6, 8, 2, 4, 7, 5]",5,6,-1,1
735,o2ql6etsj,38,38,1,1.2755,experiment_FR,5,55,11.6,0.9,30,25,5,1,"[2, 4, 5, 8, 3, 8]","[5, 8, 2, 4, 3, 3]",5,5,0,0
736,o2ql6etsj,39,38,1,3.9955,experiment_FR,0,52,11.6,0.9,26,26,0,0,"[7, 7, 1, 4, 2, 5]","[3, 8, 3, 8, 1, 3]",5,3,2,2
737,o2ql6etsj,40,38,0,1.48469999998808,experiment_FR,-6,40,11.6,0.9,17,23,6,1,"[3, 3, 1, 3, 2, 5]","[1, 4, 6, 8, 3, 1]",4,5,-1,1
738,o2ql6etsj,41,38,0,3.82289999997616,experiment_FR,-1,37,11.6,0.9,18,19,1,1,"[1, 1, 7, 1, 6, 2]","[2, 1, 8, 1, 1, 6]",4,4,0,0
739,o2ql6etsj,42,38,0,0.961799999952316,experiment_FR,-7,43,11.6,0.9,18,25,7,1,"[1, 8, 6, 1, 1, 1]","[5, 1, 4, 4, 8, 3]",3,5,-2,2
740,o2ql6etsj,43,38,0,0.806,experiment_FR,-8,46,11.6,0.9,19,27,8,1,"[2, 1, 1, 4, 3, 8]","[4, 4, 1, 5, 6, 7]",5,5,0,0
741,o2ql6etsj,44,38,1,0.764699999988079,experiment_FR,6,52,11.6,0.9,29,23,6,1,"[8, 6, 6, 1, 6, 2]","[1, 4, 4, 4, 4, 6]",4,3,1,1
742,o2ql6etsj,45,38,0,0.683900000035763,experiment_FR,-13,55,11.6,0.9,21,34,13,1,"[5, 3, 5, 3, 4, 1]","[6, 8, 5, 6, 2, 7]",4,5,-1,1
743,o2ql6etsj,46,38,0,1.44709999996424,experiment_FR,-4,48,11.6,0.9,22,26,4,1,"[3, 1, 5, 3, 3, 7]","[3, 4, 3, 4, 8, 4]",4,3,1,1
744,o2ql6etsj,47,38,1,1.95740000003576,experiment_FR,3,63,11.6,0.9,33,30,3,1,"[8, 7, 4, 4, 2, 8]","[6, 7, 6, 1, 4, 6]",4,4,0,0
745,o2ql6etsj,48,38,0,0.812400000035763,experiment_FR,-13,45,11.6,0.9,16,29,13,1,"[1, 1, 1, 4, 6, 3]","[6, 7, 5, 3, 2, 6]",4,5,-1,1
746,o2ql6etsj,49,38,0,1.675,experiment_FR,-9,51,11.6,0.9,21,30,9,1,"[3, 8, 1, 4, 1, 4]","[2, 8, 5, 7, 1, 7]",4,5,-1,1
747,o2ql6etsj,50,38,1,2.08530000001192,experiment_FR,3,47,11.6,0.9,25,22,3,1,"[8, 3, 4, 3, 4, 3]","[8, 1, 8, 1, 2, 2]",3,3,0,0
748,o2ql6etsj,51,38,0,1.63179999995232,experiment_FR,-3,59,11.6,0.9,28,31,3,1,"[1, 1, 5, 6, 8, 7]","[8, 4, 5, 5, 8, 1]",5,4,1,1
749,o2ql6etsj,52,38,0,1.42220000004768,experiment_FR,-11,65,11.6,0.9,27,38,11,1,"[6, 3, 3, 6, 7, 2]","[7, 7, 5, 8, 3, 8]",4,4,0,0
750,o2ql6etsj,53,38,1,1.66770000004768,experiment_FR,1,57,11.6,0.9,29,28,1,1,"[4, 7, 7, 5, 3, 3]","[6, 2, 6, 6, 6, 2]",4,2,2,2
751,o2ql6etsj,54,38,0,1.46160000002384,experiment_FR,-8,62,11.6,0.9,27,35,8,1,"[4, 2, 5, 5, 8, 3]","[6, 2, 8, 7, 5, 7]",5,5,0,0
752,o2ql6etsj,55,38,1,1.92760000002384,experiment_FR,0,54,11.6,0.9,27,27,0,0,"[6, 5, 3, 4, 6, 3]","[6, 8, 4, 4, 3, 2]",4,5,-1,1
753,o2ql6etsj,56,38,1,0.933800000011921,experiment_FR,6,60,11.6,0.9,33,27,6,1,"[7, 5, 6, 5, 7, 3]","[1, 8, 8, 3, 4, 3]",4,4,0,0
754,o2ql6etsj,57,38,0,0.809100000023842,experiment_FR,-8,60,11.6,0.9,26,34,8,1,"[4, 6, 1, 6, 8, 1]","[5, 5, 5, 8, 4, 7]",4,4,0,0
755,o2ql6etsj,58,38,0,0.645399999976158,experiment_FR,-12,56,11.6,0.9,22,34,12,1,"[1, 6, 5, 6, 3, 1]","[4, 7, 3, 8, 7, 5]",4,5,-1,1
756,o2ql6etsj,59,38,1,3.03589999997616,experiment_FR,1,39,11.6,0.9,20,19,1,1,"[5, 4, 4, 4, 1, 2]","[2, 6, 1, 3, 2, 5]",4,5,-1,1
757,o2ql6etsj,60,38,1,1.149,experiment_FR,5,45,11.6,0.9,25,20,5,1,"[8, 3, 1, 7, 2, 4]","[2, 6, 2, 1, 6, 3]",6,4,2,2
758,o2ql6etsj,61,38,1,0.831199999988079,experiment_FR,8,52,11.6,0.9,30,22,8,1,"[7, 2, 5, 3, 8, 5]","[6, 5, 3, 3, 3, 2]",5,4,1,1
759,o2ql6etsj,62,38,0,1.4285,experiment_FR,0,50,11.6,0.9,25,25,0,0,"[8, 4, 1, 2, 4, 6]","[2, 4, 5, 2, 6, 6]",5,4,1,1
760,o2ql6etsj,63,38,1,0.718199999988079,experiment_FR,15,51,11.6,0.9,33,18,15,1,"[5, 7, 2, 6, 5, 8]","[1, 7, 1, 5, 3, 1]",5,4,1,1
761,o2ql6etsj,64,38,0,0.588100000023842,experiment_FR,-7,61,11.6,0.9,27,34,7,1,"[3, 5, 3, 7, 4, 5]","[4, 8, 6, 4, 7, 5]",4,5,-1,1
762,o2ql6etsj,65,38,1,2.9195,experiment_FR,5,61,11.6,0.9,33,28,5,1,"[4, 8, 2, 7, 5, 7]","[5, 3, 8, 3, 7, 2]",5,5,0,0
763,o2ql6etsj,66,38,1,1.69080000001192,experiment_FR,-3,49,11.6,0.9,23,26,3,0,"[7, 6, 5, 1, 1, 3]","[5, 7, 2, 2, 2, 8]",5,4,1,1
764,o2ql6etsj,67,38,0,0.582800000011921,experiment_FR,-15,39,11.6,0.9,12,27,15,1,"[2, 2, 3, 3, 1, 1]","[1, 3, 5, 7, 5, 6]",3,5,-2,2
765,o2ql6etsj,68,38,1,1.74,experiment_FR,-1,33,11.6,0.9,16,17,1,0,"[1, 1, 5, 1, 6, 2]","[3, 1, 4, 1, 2, 6]",4,5,-1,1
766,o2ql6etsj,69,38,1,0.530699999988079,experiment_FR,3,61,11.6,0.9,32,29,3,1,"[8, 7, 5, 6, 5, 1]","[2, 5, 7, 7, 4, 4]",5,4,1,1
767,o2ql6etsj,70,38,0,3.10629999995232,experiment_FR,-4,60,11.6,0.9,28,32,4,1,"[8, 2, 4, 4, 3, 7]","[4, 8, 2, 8, 2, 8]",5,3,2,2
768,o2ql6etsj,71,38,1,1.11130000001192,experiment_FR,6,56,11.6,0.9,31,25,6,1,"[4, 6, 4, 7, 7, 3]","[7, 5, 3, 4, 3, 3]",4,4,0,0
769,o2ql6etsj,73,38,1,0.787700000047684,experiment_FR,17,51,11.6,0.9,34,17,17,1,"[7, 4, 2, 5, 8, 8]","[4, 1, 6, 1, 4, 1]",5,3,2,2
770,o2ql6etsj,74,38,1,2.43620000004768,experiment_FR,5,59,11.6,0.9,32,27,5,1,"[7, 3, 8, 5, 1, 8]","[3, 5, 8, 2, 8, 1]",5,5,0,0
771,o2ql6etsj,75,38,1,0.805899999976158,experiment_FR,9,75,11.6,0.9,42,33,9,1,"[7, 7, 8, 7, 5, 8]","[7, 1, 6, 7, 8, 4]",3,5,-2,2
772,o2ql6etsj,76,38,1,0.8405,experiment_FR,13,49,11.6,0.9,31,18,13,1,"[5, 4, 8, 6, 5, 3]","[1, 8, 1, 4, 1, 3]",5,4,1,1
773,o2ql6etsj,77,38,0,0.761,experiment_FR,-11,59,11.6,0.9,24,35,11,1,"[7, 2, 6, 2, 2, 5]","[8, 6, 7, 1, 8, 5]",4,5,-1,1
774,o2ql6etsj,78,38,0,2.74789999997616,experiment_FR,-1,43,11.6,0.9,21,22,1,1,"[1, 4, 1, 7, 1, 7]","[5, 1, 5, 1, 7, 3]",3,4,-1,1
775,o2ql6etsj,79,38,0,1.25419999998808,experiment_FR,-8,50,11.6,0.9,21,29,8,1,"[1, 3, 6, 4, 4, 3]","[7, 1, 3, 4, 6, 8]",4,6,-2,2
776,o2ql6etsj,80,38,1,0.584199999988079,experiment_FR,22,60,11.6,0.9,41,19,22,1,"[8, 6, 6, 6, 8, 7]","[2, 1, 5, 2, 4, 5]",3,4,-1,1
777,o2ql6etsj,81,38,1,0.5625,experiment_FR,16,62,11.6,0.9,39,23,16,1,"[8, 6, 3, 6, 8, 8]","[1, 3, 4, 2, 8, 5]",3,6,-3,3
778,o2ql6etsj,82,38,1,2.84969999998808,experiment_FR,4,56,11.6,0.9,30,26,4,1,"[5, 3, 6, 1, 8, 7]","[7, 1, 1, 6, 8, 3]",6,5,1,1
779,o2ql6etsj,83,38,0,1.30330000001192,experiment_FR,-3,49,11.6,0.9,23,26,3,1,"[1, 4, 4, 3, 5, 6]","[3, 5, 3, 5, 3, 7]",5,3,2,2
780,o2ql6etsj,84,38,0,1.57830000001192,experiment_FR,-1,53,11.6,0.9,26,27,1,1,"[5, 3, 6, 1, 7, 4]","[5, 6, 3, 4, 5, 4]",6,4,2,2
781,o2ql6etsj,86,38,0,0.807100000023842,experiment_FR,-7,45,11.6,0.9,19,26,7,1,"[2, 5, 6, 1, 1, 4]","[2, 4, 3, 6, 8, 3]",5,5,0,0
782,o2ql6etsj,87,38,1,0.982,experiment_FR,9,53,11.6,0.9,31,22,9,1,"[7, 4, 4, 5, 3, 8]","[2, 1, 8, 5, 2, 4]",5,5,0,0
783,o2ql6etsj,88,38,0,1.2235,experiment_FR,-8,58,11.6,0.9,25,33,8,1,"[2, 1, 6, 1, 8, 7]","[6, 2, 6, 8, 5, 6]",5,4,1,1
784,o2ql6etsj,89,38,1,0.733300000011921,experiment_FR,8,68,11.6,0.9,38,30,8,1,"[4, 6, 8, 8, 7, 5]","[6, 2, 4, 8, 3, 7]",5,6,-1,1
785,o2ql6etsj,90,38,1,2.11659999996424,experiment_FR,10,56,11.6,0.9,33,23,10,1,"[6, 6, 1, 7, 8, 5]","[8, 1, 4, 2, 6, 2]",5,5,0,0
786,o2ql6etsj,91,38,1,0.502899999976158,experiment_FR,19,69,11.6,0.9,44,25,19,1,"[8, 6, 8, 8, 8, 6]","[4, 3, 5, 8, 2, 3]",2,5,-3,3
787,o2ql6etsj,92,38,1,2.5705,experiment_FR,0,50,11.6,0.9,25,25,0,1,"[5, 6, 3, 3, 1, 7]","[6, 7, 4, 1, 5, 2]",5,6,-1,1
788,o2ql6etsj,93,38,1,1.36359999996424,experiment_FR,3,39,11.6,0.9,21,18,3,1,"[3, 3, 4, 5, 1, 5]","[1, 3, 3, 5, 3, 3]",4,3,1,1
789,o2ql6etsj,94,38,1,0.9115,experiment_FR,13,57,11.6,0.9,35,22,13,1,"[7, 6, 8, 4, 3, 7]","[6, 4, 2, 3, 1, 6]",5,5,0,0
790,o2ql6etsj,96,38,1,1.95289999997616,experiment_FR,2,36,11.6,0.9,19,17,2,1,"[2, 2, 4, 2, 4, 5]","[2, 1, 1, 4, 6, 3]",3,5,-2,2
791,o2ql6etsj,98,38,1,0.828300000011921,experiment_FR,1,67,11.6,0.9,34,33,1,1,"[2, 7, 6, 7, 7, 5]","[5, 5, 7, 3, 5, 8]",4,4,0,0
792,o2ql6etsj,99,38,1,0.748300000011921,experiment_FR,10,56,11.6,0.9,33,23,10,1,"[8, 3, 3, 7, 6, 6]","[3, 1, 8, 5, 4, 2]",4,6,-2,2
